"Time (s)","Linear Acceleration x (m/s^2)","Linear Acceleration y (m/s^2)","Linear Acceleration z (m/s^2)","Absolute acceleration (m/s^2)"
0.000000000E0,-4.658819139E-1,-9.610071778E-3,6.206818223E-1,7.761341609E-1
1.929431300E-2,-6.045742035E-1,-1.098332331E-1,3.000283837E-1,6.838057748E-1
3.862148600E-2,-2.589925425E-3,-1.239749789E-1,-8.930704743E-2,1.528144359E-1
5.795782000E-2,-4.970919490E-1,1.868525147E-1,7.225592136E-1,8.967196246E-1
7.727610300E-2,-6.212970018E-1,-5.205468833E-2,3.003775477E-1,6.920594817E-1
9.662410200E-2,-7.111292481E-1,-3.105106950E-1,-7.731775194E-2,7.798074981E-1
1.159049250E-1,-7.439427376E-1,-1.180571392E-1,-2.798056975E-2,7.537713162E-1
1.352230370E-1,-7.416307926E-1,1.257737279E-1,9.829944372E-2,7.586158737E-1
1.545665250E-1,-6.695669889E-1,5.491586402E-2,2.470142841E-1,7.157875113E-1
1.738846370E-1,-5.967408419E-1,-1.511176825E-1,3.535620570E-1,7.098889452E-1
1.932027330E-1,-6.058234572E-1,-9.566912800E-2,3.684368730E-1,7.154861094E-1
2.125462370E-1,-6.058304906E-1,-9.561391175E-2,3.684377074E-1,7.154851135E-1
2.318710690E-1,-5.741311908E-1,3.974863887E-2,4.649165571E-1,7.398337540E-1
2.511897250E-1,-6.331697106E-1,1.428822726E-1,2.212026268E-1,6.857476419E-1
2.705483440E-1,-6.753298640E-1,-5.956481025E-2,1.096768826E-1,6.867659066E-1
2.898697700E-1,-6.862771511E-1,1.198779643E-1,2.070801556E-1,7.267938121E-1
3.091955000E-1,-6.344674230E-1,-5.958781019E-2,3.139820993E-1,7.104114136E-1
3.285446100E-1,-6.549588442E-1,5.224793404E-2,2.059163004E-1,6.885509836E-1
3.478109770E-1,-6.967222691E-1,6.712357700E-2,-2.541428432E-2,7.004094379E-1
3.671265830E-1,-6.476217508E-1,-8.070045710E-2,1.641441435E-1,6.729560132E-1
3.864705510E-1,-5.497475863E-1,-9.215857834E-2,2.930220068E-1,6.297440024E-1
4.057930700E-1,-4.546665847E-1,-6.808228046E-2,4.672991335E-1,6.555344235E-1
4.251077990E-1,-3.793307245E-1,-6.394995749E-2,3.680569530E-1,5.323977049E-1
4.444263910E-1,-3.646244407E-1,-2.407372929E-2,1.507681981E-2,3.657291862E-1
4.637704230E-1,-3.270265460E-1,-4.769347981E-2,-1.323785782E-1,3.560128056E-1
4.830890150E-1,-2.589441240E-1,-3.842033818E-2,9.032874554E-2,2.769250151E-1
5.024329830E-1,-2.385876030E-1,-2.903143503E-2,2.465487421E-1,3.443154814E-1
5.217259750E-1,-1.808135509E-1,-9.085074067E-3,3.082925677E-1,3.575197702E-1
5.410435430E-1,-1.773475856E-1,-1.979422942E-2,2.066935897E-1,2.730681557E-1
5.603610470E-1,-1.496270001E-1,-3.168607876E-2,1.194199547E-1,1.940447689E-1
5.797039590E-1,-1.397018731E-1,-1.613916829E-2,4.666365683E-2,1.481707898E-1
5.990215270E-1,-1.194685847E-1,-2.608377673E-2,5.631528422E-2,1.346273277E-1
6.183332710E-1,-8.878539503E-2,-8.972911164E-3,9.386184812E-2,1.295121849E-1
6.376505830E-1,-8.885086328E-2,-6.259904709E-3,9.531083517E-3,8.957959514E-2
6.569932390E-1,-7.907225192E-2,-1.734190062E-2,3.489798307E-2,8.815345576E-2
6.763106150E-1,-5.792637914E-2,-1.556451898E-4,8.793287724E-2,1.052980557E-1
6.956279910E-1,-2.310009860E-2,3.908873070E-3,2.090620250E-1,2.103706827E-1
7.149452390E-1,-7.893383736E-4,-2.369428985E-2,3.300224245E-1,3.308728503E-1
7.343113040E-1,-1.873733103E-2,-1.652296633E-2,1.785143465E-1,1.802538984E-1
7.536286160E-1,-5.228441954E-2,-9.516652673E-3,1.376665942E-2,5.489761485E-2
7.729459920E-1,-3.401387483E-2,1.460903324E-2,-5.516722798E-2,6.643636487E-2
7.922886480E-1,-1.809014753E-2,1.649377984E-3,1.250471547E-2,2.205315837E-2
8.116060240E-1,-1.881318726E-2,1.939502195E-3,1.263523288E-2,2.274525870E-2
8.309233360E-1,2.323331684E-2,3.346920479E-3,8.050752431E-2,8.385970641E-2
8.502796020E-1,-1.823292580E-3,5.775290541E-3,2.560465783E-2,2.631115503E-2
8.696026090E-1,-3.631205764E-3,2.037175000E-2,8.041109145E-2,8.303094291E-2
8.889249710E-1,2.155654505E-2,2.111874335E-2,2.033666521E-1,2.055934852E-1
9.082388740E-1,2.051282115E-2,-7.197659928E-3,1.490856111E-1,1.506622102E-1
9.275898030E-1,1.961624250E-2,-9.087399580E-3,8.116344362E-2,8.399334725E-2
9.469054210E-1,5.781810358E-2,1.324966270E-2,1.361760348E-1,1.485341682E-1
9.662201070E-1,9.223183990E-2,1.964876894E-3,6.937032938E-2,1.154245019E-1
9.855596920E-1,-4.066152498E-2,-3.957614675E-2,-6.095811725E-1,6.122163317E-1
1.004871336E0,-2.547576129E-1,2.253142186E-2,-1.009937450E-1,2.749706218E-1
1.024195303E0,1.265413761E0,2.798772156E-1,6.304376602E0,6.436207547E0
1.043541795E0,1.072495580E0,1.954725757E-2,1.063937664E1,1.069331399E1
1.062857879E0,1.480637074E0,-4.078580141E-1,7.690728664E0,7.842572390E0
1.082172317E0,8.971751928E-1,-8.376001567E-2,-5.008051395E0,5.088469106E0
1.101518166E0,-3.050146103E-1,3.009955287E-1,-1.569503880E1,1.570088771E1
1.120854966E0,-9.338410497E-1,3.078489751E-2,-1.653804207E1,1.656441494E1
1.140148719E0,-3.543962836E-1,2.077108622E-2,-1.089507103E1,1.090085322E1
1.159492527E0,1.185651422E0,-5.985430628E-2,-6.694961190E-1,1.362929523E0
1.178804425E0,1.463170528E0,-1.696227789E-1,9.029356956E0,9.148711763E0
1.198124822E0,1.509018779E0,-3.235528618E-2,1.364484501E1,1.372807269E1
1.217439950E0,1.715749621E0,-3.399418667E-2,1.392622375E1,1.403155944E1
1.236780128E0,2.010672569E0,-1.778939962E-1,9.336037636E0,9.551756341E0
1.256102156E0,1.650998950E0,-4.517961666E-2,-7.990066409E-1,1.834734407E0
1.275416088E0,4.778794348E-1,1.794807166E-1,-1.053916740E1,1.055152272E1
1.294758344E0,-9.207918644E-1,-1.349824108E-2,-1.500175762E1,1.502999573E1
1.314074777E0,-8.432138562E-1,4.928597808E-2,-1.345638466E1,1.348286790E1
1.333399589E0,4.127048254E-1,1.597341150E-1,-5.976390362E0,5.992752457E0
1.352733092E0,1.365165710E0,-6.231320649E-2,4.487814903E0,4.691273064E0
1.372059176E0,1.125463367E0,-5.744643882E-2,4.520606995E0,4.658954334E0
1.391378362E0,1.388495803E0,-7.818139344E-2,1.388256741E1,1.395205041E1
1.410678126E0,1.497246742E0,-1.576137543E-2,1.034553337E1,1.045332755E1
1.430028653E0,1.417222857E0,-8.303711563E-2,3.975036383E0,4.220939473E0
1.449347216E0,6.460741162E-1,4.025266320E-2,-5.799309254E0,5.835325172E0
1.468664720E0,-6.488094926E-1,1.057219654E-1,-1.363085651E1,1.364669851E1
1.487988602E0,-9.238014817E-1,2.514988557E-2,-1.459512329E1,1.462435180E1
1.507331508E0,1.018266454E-1,9.374595433E-2,-9.261567116E0,9.262601277E0
1.526644328E0,1.312089205E0,2.431187313E-3,1.168885902E-1,1.317287719E0
1.545968714E0,1.546067834E0,-1.834810823E-1,9.545635223E0,9.671770410E0
1.565314164E0,1.386544704E0,-1.018455625E-1,1.325859356E1,1.333128583E1
1.584622966E0,1.412251711E0,-3.215676546E-2,1.199704456E1,1.207992414E1
1.603942951E0,1.460521579E0,-8.647941053E-2,7.282232285E0,7.427752622E0
1.623283579E0,9.977934361E-1,-1.857050322E-2,-1.634562254E0,1.915131945E0
1.642605112E0,3.490329487E-3,1.443749070E-1,-1.050105667E1,1.050204968E1
1.661923631E0,-9.120330215E-1,2.372057363E-2,-1.409220314E1,1.412170515E1
1.681262106E0,-6.864885092E-1,7.309569418E-2,-1.157690907E1,1.159747528E1
1.700586756E0,4.602765739E-1,9.298121184E-2,-4.118535519E0,4.145218311E0
1.719898412E0,1.215040684E0,-9.481840581E-2,5.483838558E0,5.617632929E0
1.739249125E0,1.293374062E0,-1.404387802E-1,1.199857807E1,1.206890282E1
1.758551008E0,1.348030925E0,-3.131124377E-2,1.249403381E1,1.256658461E1
1.777868512E0,1.529513955E0,-3.825693950E-2,9.158671379E0,9.285587648E0
1.797197523E0,1.406905651E0,-1.144112721E-1,2.465137482E0,2.840664756E0
1.816546030E0,5.885624886E-1,5.459311232E-2,-6.605717182E0,6.632110200E0
1.835770990E0,-6.599484086E-1,9.387844801E-2,-1.275876427E1,1.277616573E1
1.855088494E0,-9.488649368E-1,8.089365810E-2,-1.289771748E1,1.293282663E1
1.874406126E0,-1.454584301E-1,1.031546369E-1,-7.551398754E0,7.553503967E0
1.893748974E0,8.350598216E-1,-2.162085846E-2,1.124743581E0,1.401014093E0
1.913066478E0,1.168820024E0,-1.982564330E-1,9.363070488E0,9.437824687E0
1.932390126E0,1.065529108E0,-2.122556120E-1,9.378609657E0,9.441330617E0
1.951733102E0,1.457255125E0,6.653130520E-3,1.066519928E1,1.076429805E1
1.971050734E0,1.219052672E0,-6.433605403E-2,5.773186684E0,5.900840028E0
1.990368366E0,1.749739528E0,-7.760693878E-2,5.732524395E0,5.994117716E0
2.009721631E0,-2.112720013E-1,9.261334687E-2,-1.024231339E1,1.024491076E1
2.029062575E0,-8.400990367E-1,2.922702394E-2,-1.285486507E1,1.288232031E1
2.048380207E0,-3.327638507E-1,8.605827391E-2,-9.983444214E0,9.989359148E0
2.067697711E0,7.256602049E-1,7.977701724E-2,-2.876658201E0,2.967845938E0
2.087015215E0,1.284433007E0,-1.043069735E-1,5.855191708E0,5.995324681E0
2.106358191E0,1.222787142E0,-1.338395625E-1,1.125637531E1,1.132338759E1
2.125676646E0,1.150477648E0,-5.898333713E-2,1.140337467E1,1.146141491E1
2.144994150E0,1.163915396E0,-6.130100042E-2,7.974264622E0,8.058992066E0
2.164311910E0,9.648387432E-1,-5.583519489E-2,1.346954584E0,1.657805182E0
2.183654758E0,2.141343355E-1,1.062090322E-1,-6.849009037E0,6.853178727E0
2.202972518E0,-7.840819955E-1,6.038640440E-2,-1.191657639E1,1.194249655E1
2.222293726E0,-7.536020875E-1,1.771229319E-2,-1.143999863E1,1.146480695E1
2.241636702E0,1.906674057E-1,9.551192075E-2,-6.180753231E0,6.184431024E0
2.260954334E0,7.575578690E-1,-1.193049364E-2,1.848957181E0,1.998168891E0
2.280272094E0,1.025638461E0,-1.367696375E-1,8.963241577E0,9.022767855E0
2.299589598E0,1.119107366E0,-8.572413027E-2,1.138422298E1,1.143941794E1
2.318907358E0,1.296087980E0,-2.134829201E-2,9.578619003E0,9.665932020E0
2.338273385E0,1.264533758E0,-8.573213965E-2,4.602218628E0,4.773553386E0
2.357590889E0,7.219266295E-1,1.121352986E-2,-3.130163670E0,3.212355584E0
2.376908393E0,-1.963215917E-1,1.038261205E-1,-9.805924416E0,9.808439003E0
2.396251753E0,-8.048028350E-1,4.771041125E-2,-1.169923592E1,1.172698192E1
2.415569257E0,-4.944156706E-1,5.641067401E-2,-8.713713646E0,8.727911235E0
2.434891602E0,3.449077010E-1,2.928454801E-2,-1.972794056E0,2.002931675E0
2.454246399E0,9.729754925E-1,-1.056539416E-1,5.985708714E0,6.065191907E0
2.473564178E0,1.114342690E0,-8.046226203E-2,1.056367397E1,1.062259110E1
2.492883781E0,1.195861220E0,-2.887995355E-2,1.045305634E1,1.052127867E1
2.512199890E0,9.941338897E-1,-8.975534886E-2,6.972526073E0,7.043612572E0
2.531530163E0,7.049120069E-1,-4.712396860E-2,5.006408691E-1,8.658884949E-1
2.550866684E0,2.313758433E-2,9.093502164E-2,-6.862615585E0,6.863257040E0
2.570184062E0,-7.406904697E-1,7.800175995E-2,-1.104551506E1,1.107059662E1
2.589509758E0,-6.309141517E-1,3.683941439E-2,-1.022857761E1,1.024808323E1
2.608856844E0,2.134170681E-1,5.947586149E-2,-5.116408348E0,5.121202848E0
2.628176626E0,8.906570077E-1,-2.393377014E-2,2.293550491E0,2.460531769E0
2.647491963E0,1.003619909E0,-1.081646383E-1,8.547609329E0,8.607007480E0
2.666833601E0,9.733988643E-1,-8.191304654E-2,1.053317356E1,1.057837229E1
2.686157463E0,1.023554802E0,-4.147259891E-2,8.649126053E0,8.709578973E0
2.705480330E0,9.302049279E-1,-3.236662224E-2,3.703571320E0,3.818739232E0
2.724820615E0,3.685223162E-1,4.728148505E-2,-3.519124985E0,3.538684063E0
2.744130101E0,-3.746171594E-1,9.617676586E-2,-9.288870811E0,9.296919325E0
2.763450003E0,-7.507499456E-1,1.135029178E-2,-1.065062046E1,1.067705346E1
2.782799632E0,-2.400435954E-1,4.130134359E-2,-7.612749100E0,7.616644641E0
2.802117504E0,5.493093729E-1,4.450351000E-2,-1.331906080E0,1.441421228E0
2.821428591E0,8.554899693E-1,-5.653768405E-2,5.874451637E0,5.936686082E0
2.840769186E0,9.920916557E-1,-8.165248483E-2,9.915662766E0,9.965504556E0
2.860091049E0,1.100582123E0,-8.248607069E-2,9.667746544E0,9.730539975E0
2.879411255E0,1.097048998E0,-7.552281767E-2,6.100451469E0,6.198768291E0
2.898758269E0,8.012707233E-1,-2.107173577E-2,-1.405679137E-1,8.137801475E-1
2.918067137E0,7.077488303E-2,9.806572646E-2,-6.728096485E0,6.729183330E0
2.937410300E0,-7.288687825E-1,5.394712463E-2,-1.022861195E1,1.025468977E1
2.956727967E0,-6.953514218E-1,4.278278723E-2,-9.206057549E0,9.232379951E0
2.976050203E0,2.153602056E-2,7.166551054E-2,-4.287718773E0,4.288371721E0
2.995388062E0,6.278075576E-1,-1.853688248E-2,2.612444162E0,2.686884896E0
3.014701579E0,8.172110319E-1,-1.036386043E-1,8.149010658E0,8.190540247E0
3.034039684E0,9.491220117E-1,-7.105811685E-2,9.799495697E0,9.845608044E0
3.053362784E0,1.083318949E0,-2.392431721E-2,7.806928635E0,7.881769283E0
3.072686730E0,9.839890599E-1,-4.064317420E-2,2.949111223E0,3.109203008E0
3.092010190E0,1.202414870E0,-4.937057942E-2,2.937369585E0,3.174331277E0
3.111349423E0,5.345307589E-1,4.127042834E-3,-3.704292297E0,3.742662366E0
3.130665279E0,-6.743417382E-1,5.608595535E-2,-9.792865753E0,9.816216281E0
3.149972273E0,-1.941240132E-1,8.534858376E-2,-6.699157715E0,6.702513156E0
3.169321689E0,4.603967667E-1,1.849310659E-2,-8.259014487E-1,9.457380085E-1
3.188642519E0,8.552204967E-1,-1.006325707E-1,5.692491531E0,5.757255322E0
3.207958716E0,9.483122826E-1,-7.753444463E-2,9.251130104E0,9.299930966E0
3.227302864E0,9.247418046E-1,-3.068792075E-2,8.910159111E0,8.958070358E0
3.246615645E0,8.362330198E-1,-3.841060400E-2,5.364753723E0,5.429672508E0
3.265932056E0,4.843025208E-1,-2.865982987E-2,-5.124514699E-1,7.056747313E-1
3.285278412E0,-1.498590708E-1,7.712388039E-2,-6.494378090E0,6.496564677E0
3.304593952E0,-6.896677613E-1,5.670775846E-2,-9.534100533E0,9.559180423E0
3.323904890E0,-5.190581679E-1,4.371939227E-2,-8.321543694E0,8.337830786E0
3.343253926E0,1.786872447E-1,2.434978075E-2,-3.668946981E0,3.673376375E0
3.362563638E0,7.369543314E-1,-3.984963149E-2,2.704758883E0,2.803642326E0
3.381884687E0,8.865756989E-1,-7.521886379E-2,7.670232773E0,7.721667251E0
3.401224714E0,8.925526738E-1,-3.021917306E-2,9.125169754E0,9.168766903E0
3.420537920E0,9.369190931E-1,-6.631954759E-2,7.121224403E0,7.182900018E0
3.439790426E0,8.253374100E-1,-7.072831690E-2,2.375884295E0,2.516149939E0
3.459108186E0,2.997368276E-1,2.321284823E-2,-3.756050348E0,3.768062529E0
3.478425818E0,-3.407039046E-1,9.884639084E-2,-8.199231148E0,8.206902045E0
3.497768794E0,-6.908214688E-1,4.501509666E-2,-8.975116730E0,9.001776545E0
3.517086554E0,-3.409447074E-1,5.201539770E-2,-5.929841042E0,5.939862260E0
3.536417536E0,2.360016853E-1,-7.047774852E-4,-4.429331124E-1,5.018834867E-1
3.555734912E0,6.408698559E-1,-4.953476787E-2,5.419706345E0,5.457690421E0
3.575052416E0,8.001368046E-1,-6.979896873E-2,8.608983994E0,8.646368961E0
3.594432318E0,9.309663773E-1,-5.578623712E-2,8.238658905E0,8.291279217E0
3.613749694E0,9.328615665E-1,-2.694304101E-2,4.787091255E0,4.877212248E0
3.633078182E0,5.876510739E-1,-1.121647563E-2,-8.081361651E-1,9.992715624E-1
3.652418410E0,-1.030902714E-1,6.030371040E-2,-6.182651043E0,6.183804497E0
3.671735658E0,-3.344457597E-2,5.910605192E-2,-6.183323383E0,6.183696316E0
3.691052650E0,-7.551220059E-1,1.897172257E-2,-8.797778130E0,8.830145479E0
3.710395114E0,1.590483487E-1,5.299894139E-2,-3.218044043E0,3.222407908E0
3.729705645E0,6.793519855E-1,-1.442142110E-2,2.691408634E0,2.775861584E0
3.749022637E0,7.760287523E-1,-9.137050062E-2,7.258578300E0,7.300515608E0
3.768365101E0,7.643100023E-1,-8.375556022E-2,8.565705299E0,8.600144885E0
3.787682093E0,7.435532212E-1,-5.627395213E-2,6.532595158E0,6.575016171E0
3.807024429E0,5.808602571E-1,-1.343435957E-3,1.965293646E0,2.049336370E0
3.826346169E0,7.084431499E-2,2.864236757E-2,-3.682632446E0,3.683425177E0
3.845666238E0,-4.361457229E-1,3.366333246E-2,-7.626326084E0,7.638861555E0
3.864986427E0,-6.039303541E-1,1.950955018E-2,-8.267050743E0,8.289103720E0
3.884325870E0,-1.376127601E-1,7.624687999E-2,-5.375714779E0,5.378016385E0
3.903638932E0,3.923125267E-1,1.876531914E-2,-2.376295030E-1,4.590523244E-1
3.922981140E0,6.763430834E-1,-7.932764292E-2,5.131433964E0,5.176422255E0
3.942293462E0,7.381777763E-1,-9.481093287E-2,8.056437492E0,8.090740424E0
3.961616698E0,7.729496956E-1,-4.424143583E-2,7.604371071E0,7.643681568E0
3.980958650E0,8.311510682E-1,-1.617323048E-2,4.281439304E0,4.361398421E0
4.000277736E0,4.700684249E-1,-1.193529088E-2,-9.167223573E-1,1.030284745E0
4.019618277E0,-1.512385607E-1,2.064874209E-2,-5.841628075E0,5.843621996E0
4.038937261E0,-6.123409271E-1,3.309466317E-2,-8.144248009E0,8.167302633E0
4.058272286E0,-5.106797814E-1,6.274002045E-2,-6.914656639E0,6.933772897E0
4.077586783E0,-8.492843807E-2,3.164645284E-2,-2.853585005E0,2.855023943E0
4.096930953E0,4.291412234E-1,-4.015988857E-2,2.609125376E0,2.644486762E0
4.116246880E0,6.690496802E-1,-8.230090141E-2,6.800145626E0,6.833475064E0
4.135578143E0,7.752202153E-1,-3.125419468E-2,7.956574440E0,7.994311729E0
4.154894041E0,8.091332912E-1,-4.329069704E-2,5.998055458E0,6.052539966E0
4.174206858E0,6.200845242E-1,-3.451098874E-2,1.707709193E0,1.817131397E0
4.193552180E0,1.473316550E-1,9.806893766E-3,-3.536943436E0,3.540024246E0
4.212864227E0,-3.573961258E-1,6.046519056E-2,-7.122513771E0,7.131731238E0
4.232177693E0,-3.608355522E-1,6.051230431E-2,-7.122469902E0,7.131861015E0
4.251514885E0,-1.453866512E-1,4.943634942E-2,-4.925593376E0,4.927986540E0
4.270831109E0,3.301476836E-1,-2.274543978E-2,-1.145367846E-1,3.501906953E-1
4.290149915E0,6.405843496E-1,-6.842466444E-2,4.829893589E0,4.872668912E0
4.309486775E0,7.064375877E-1,-4.281948507E-2,7.507178783E0,7.540465560E0
4.328731563E0,6.885446310E-1,-3.208291531E-2,7.082218170E0,7.115682485E0
4.348047787E0,5.757893920E-1,-4.438658804E-2,3.938949108E0,3.981058109E0
4.367389227E0,2.413900197E-1,-3.597379103E-2,-9.492468834E-1,9.801188198E-1
4.386705451E0,-2.467313558E-1,4.978956282E-2,-5.471055984E0,5.476842973E0
4.406021547E0,-5.503830910E-1,6.021853164E-2,-7.530906677E0,7.551231899E0
4.425362987E0,-3.694919348E-1,4.769669846E-2,-6.358125687E0,6.369031442E0
4.444672494E0,5.957369134E-2,-1.208278234E-3,-2.603004217E0,2.603686125E0
4.463988590E0,4.981813431E-1,-3.224093840E-2,2.431828737E0,2.482542071E0
4.483329902E0,6.546952128E-1,-5.596017838E-2,6.326022625E0,6.360056573E0
4.502645998E0,6.776334047E-1,-4.571330175E-2,7.425654411E0,7.456649393E0
4.521961838E0,6.299386024E-1,-5.943311006E-2,5.599410057E0,5.635046400E0
4.541310720E0,5.766711235E-1,-3.685119003E-2,1.503571987E0,1.610787483E0
4.560652160E0,1.078657508E-1,2.252313867E-2,-3.331839085E0,3.333660750E0
4.579968128E0,-3.574521542E-1,6.032174081E-2,-6.631570339E0,6.641470915E0
4.599284224E0,-5.991358161E-1,2.063297853E-2,-7.079735756E0,7.105071978E0
4.618625536E0,-3.295264840E-1,2.531441115E-2,-4.564621449E0,4.576570495E0
4.637942466E0,1.506867260E-1,2.022879384E-2,-6.237228215E-2,1.643350086E-1
4.657258562E0,4.891640842E-1,-3.038232587E-2,4.511744022E0,4.538285878E0
4.676599874E0,6.284749508E-1,-4.623043537E-2,7.014780045E0,7.043028971E0
4.695915970E0,6.886411905E-1,-6.033639982E-2,6.620487690E0,6.656479882E0
4.715231938E0,6.598433256E-1,-3.477827832E-2,3.626133442E0,3.685844066E0
4.734573378E0,3.458777666E-1,1.216252055E-2,-9.290250540E-1,9.913964430E-1
4.753889346E0,-1.515809447E-1,4.711306840E-2,-5.104735374E0,5.107202724E0
4.773205442E0,-5.169532895E-1,3.328406811E-2,-6.971655846E0,6.990875036E0
4.792546754E0,-4.589228332E-1,2.214752138E-2,-5.877636433E0,5.895567039E0
4.811862850E0,-9.710378945E-2,2.875567973E-2,-2.403310537E0,2.405443322E0
4.831178818E0,-2.545649409E-1,3.281693533E-2,-2.391723394E0,2.405456517E0
4.850526267E0,1.882211417E-1,-4.003529903E-3,2.276673079E0,2.284443813E0
4.869861482E0,6.299538612E-1,-6.050020084E-2,6.958520412E0,6.987238973E0
4.889177450E0,5.737797618E-1,-4.765753075E-2,5.201720238E0,5.233487163E0
4.908503194E0,3.784126043E-1,-8.583207615E-3,1.377360940E0,1.428423232E0
4.927850920E0,-2.817255445E-2,1.176448353E-2,-3.081377745E0,3.081528988E0
4.947165653E0,-4.028525352E-1,3.365015239E-2,-6.166976452E0,6.180212056E0
4.966481321E0,-4.935534000E-1,1.973703131E-2,-6.576312542E0,6.594836704E0
4.985819719E0,-1.804675013E-1,4.957117885E-2,-4.269656181E0,4.273755927E0
5.005136848E0,2.679819465E-1,1.519986149E-2,-8.677068353E-2,2.820895442E-1
5.024457179E0,5.134720802E-1,-7.319049537E-2,4.186171055E0,4.218179527E0
5.043792528E0,5.788058639E-1,-8.673030883E-2,6.532753944E0,6.558918544E0
5.063108907E0,5.862749815E-1,-4.782845452E-2,6.162631512E0,6.190640764E0
5.082427609E0,4.849209487E-1,-7.603726815E-3,3.377583504E0,3.412224563E0
5.101773055E0,1.760745645E-1,1.566197141E-3,-8.668540120E-1,8.845567157E-1
5.121087419E0,-1.681163013E-1,6.963357329E-3,-4.736225605E0,4.739213496E0
5.140415487E0,-4.963244498E-1,2.020584606E-2,-6.480611801E0,6.499621185E0
5.159751445E0,-4.405532777E-1,3.596451506E-2,-5.509058475E0,5.526762698E0
5.179071308E0,-1.133442000E-1,2.817069553E-2,-2.239692450E0,2.242735554E0
5.198325329E0,2.632182539E-1,-3.370711580E-2,2.100145578E0,2.116844697E0
5.217641681E0,4.909087121E-1,-6.043225154E-2,5.495233059E0,5.517447761E0
5.236967511E0,6.247242093E-1,-6.235732138E-2,6.461036682E0,6.491468538E0
5.256283991E0,6.313961744E-1,-4.932473600E-2,4.835269928E0,4.876569423E0
5.275625815E0,4.320927262E-1,-2.606503852E-2,1.272561431E0,1.344171159E0
5.294942167E0,6.034024432E-2,8.249380626E-3,-2.880724907E0,2.881368596E0
5.314258519E0,-3.442580700E-1,4.659985751E-2,-5.744842052E0,5.755336252E0
5.333574999E0,-4.820008278E-1,3.416190669E-2,-6.111093044E0,6.130167211E0
5.352924953E0,-2.891061902E-1,2.446983382E-2,-3.950308084E0,3.960948766E0
5.372241305E0,8.416496962E-2,-2.348652110E-2,-4.997812957E-2,1.006636589E-1
5.391557913E0,3.752569258E-1,-4.741181433E-2,3.920802832E0,3.939005012E0
5.410899865E0,3.125148118E-1,-4.790268838E-2,3.927531481E0,3.940236504E0
5.430253143E0,5.695781708E-1,-3.590095788E-2,6.105485916E0,6.132101307E0
5.449573146E0,4.177596271E-1,-5.000910908E-2,3.144725800E0,3.172747133E0
5.468912013E0,1.309596151E-1,-4.049597681E-2,-8.257260919E-1,8.370268357E-1
5.488253965E0,-2.517676353E-1,2.148840018E-2,-4.447105885E0,4.454278779E0
5.507570573E0,-4.372582138E-1,6.009591743E-2,-6.071453094E0,6.087474759E0
5.526912653E0,-3.245729208E-1,4.769013822E-2,-5.129823685E0,5.140302809E0
5.546238966E0,1.795620099E-2,-1.632880419E-2,-2.042412996E0,2.042557197E0
5.565555702E0,3.444671631E-1,-3.695856780E-2,2.007676840E0,2.037348732E0
5.584872566E0,5.118716955E-1,-6.148337945E-2,5.146593094E0,5.172350850E0
5.604214774E0,5.258028507E-1,-3.586880863E-2,6.052824974E0,6.075725913E0
5.623531510E0,4.687933326E-1,-3.654302284E-2,4.529747009E0,4.554087236E0
5.642851951E0,2.806777954E-1,-3.844805062E-2,1.172208667E0,1.205956648E0
5.662194287E0,-6.935536861E-2,1.018357929E-2,-2.712313652E0,2.713219346E0
5.681511023E0,-3.199241757E-1,4.646720737E-2,-5.376323223E0,5.386033984E0
5.700839262E0,-4.213028252E-1,3.316475078E-2,-5.703047276E0,5.718683782E0
5.720163977E0,-2.909522355E-1,1.016935520E-2,-3.636223555E0,3.647859421E0
5.739506990E0,6.020689756E-2,-1.090324949E-2,1.786340401E-2,6.374050961E-2
5.758824010E0,3.539874256E-1,-3.518272191E-2,3.714486837E0,3.731481929E0
5.778135602E0,5.135408640E-1,-3.654825687E-2,5.724288464E0,5.747394054E0
5.797459270E0,5.547662377E-1,-6.433509290E-2,5.387407780E0,5.416277981E0
5.816772084E0,4.770801365E-1,-5.249610543E-2,2.902596235E0,2.942010571E0
5.836113732E0,2.132400870E-1,-3.710597055E-3,-8.318578601E-1,8.587622504E-1
5.855438831E0,-1.657876968E-1,6.003845483E-2,-4.217105865E0,4.220790454E0
5.874754756E0,-4.220778346E-1,4.660772532E-2,-5.661775589E0,5.677677765E0
5.894105400E0,-4.193862081E-1,8.251572028E-3,-4.730799675E0,4.749359793E0
5.913427649E0,-1.125066504E-1,-1.432574447E-2,-1.816604614E0,1.820141560E0
5.932741973E0,2.061560303E-1,-2.322449535E-2,1.948036432E0,1.959052227E0
5.952068802E0,1.167042330E-1,-2.235733718E-2,1.956663847E0,1.960268639E0
5.971406112E0,4.171777964E-1,-2.328941412E-2,4.837597847E0,4.855608370E0
5.990724940E0,4.366552234E-1,-5.129459128E-2,4.214278221E0,4.237149967E0
6.010040768E0,2.485673875E-1,-3.982197121E-2,1.035351753E0,1.065516207E0
6.029389646E0,-7.865550369E-2,2.275845408E-2,-2.616509199E0,2.617790103E0
6.048713630E0,-3.338175714E-1,3.264261037E-2,-5.047796726E0,5.058927900E0
6.068025705E0,-4.094639122E-1,1.930820569E-2,-5.279968262E0,5.295856715E0
6.087293093E0,-1.788859814E-1,8.056199178E-3,-3.327103853E0,3.331919139E0
6.106610597E0,1.860249043E-1,-1.019010087E-3,7.762616873E-2,2.015741190E-1
6.125928101E0,4.059635103E-1,-3.758601472E-2,3.487552881E0,3.511302348E0
6.145275624E0,4.659215212E-1,-6.430351734E-2,5.366490841E0,5.387062442E0
6.164593256E0,4.343501925E-1,-6.521994621E-2,5.023588657E0,5.042752892E0
6.183910888E0,3.420162797E-1,-2.557889558E-2,2.637860775E0,2.660063699E0
6.203253992E0,1.027685106E-1,2.467241511E-2,-8.528961539E-1,8.594195391E-1
6.222571624E0,-2.330496311E-1,2.003479563E-2,-3.955384254E0,3.962294553E0
6.241925103E0,-4.113524258E-1,-2.192081511E-2,-5.266287327E0,5.282373855E0
6.261268207E0,-3.987071812E-1,7.393163163E-3,-4.362162590E0,4.380352102E0
6.280598235E0,-1.048274785E-1,3.849468008E-2,-1.639131188E0,1.642930824E0
6.299926038E0,1.895458549E-1,2.298424486E-3,1.865350842E0,1.874957781E0
6.319269142E0,3.590408862E-1,-6.481532753E-2,4.588484287E0,4.602966374E0
6.338586902E0,4.708656073E-1,-1.068706065E-1,5.308663368E0,5.330576189E0
6.357904534E0,5.040371418E-1,-4.010920599E-2,3.877438784E0,3.910267729E0
6.377247638E0,3.364239931E-1,-2.996931318E-3,8.503680825E-1,9.145031222E-1
6.396565398E0,-1.896778867E-2,3.320720419E-2,-2.497282982E0,2.497575782E0
6.415883030E0,-3.326833546E-1,4.577530548E-3,-4.734562397E0,4.746238538E0
6.435238535E0,-4.277186990E-1,-7.933192886E-3,-4.896098137E0,4.914751590E0
6.454554151E0,-2.405693233E-1,2.215769514E-2,-3.035198450E0,3.044797891E0
6.473864585E0,6.286094338E-2,1.302006282E-2,1.674885452E-1,1.793695431E-1
6.493186487E0,2.925969064E-1,-3.860955685E-2,3.356969118E0,3.369917700E0
6.512527833E0,4.140029848E-1,-6.640911847E-2,5.051531792E0,5.068903440E0
6.531844105E0,4.146488011E-1,-3.980787843E-2,4.667301178E0,4.685853026E0
6.551157972E0,5.673393011E-1,-4.124313593E-2,4.653045177E0,4.687686455E0
6.570500948E0,4.889715090E-2,-3.888665000E-3,-8.937887549E-1,8.951337283E-1
6.589823728E0,-2.349435836E-1,5.551691167E-3,-3.723194122E0,3.730603675E0
6.609142375E0,-3.696380556E-1,1.773078367E-2,-4.938543797E0,4.952389474E0
6.628455038E0,-2.819989622E-1,3.256484121E-2,-4.037322998E0,4.047290560E0
6.647797224E0,9.534201672E-5,2.211314812E-2,-1.413334608E0,1.413507593E0
6.667096104E0,2.423652858E-1,-5.495712161E-2,1.857311130E0,1.873863882E0
6.686413736E0,3.743232489E-1,-7.993967831E-2,4.310394287E0,4.327355677E0
6.705756840E0,4.384273589E-1,-3.990539163E-2,4.927833557E0,4.947459404E0
6.725074472E0,3.847469687E-1,-1.380567346E-2,3.529131413E0,3.550068922E0
6.744385381E0,1.850400567E-1,-1.608295739E-2,6.935129762E-1,7.179545475E-1
6.763742639E0,-1.216175407E-1,-2.035277337E-2,-2.411398411E0,2.414549100E0
6.783060143E0,-3.368565738E-1,4.082362633E-3,-4.460583210E0,4.473286442E0
6.802389492E0,-3.559171259E-1,3.127624467E-2,-4.556225777E0,4.570213182E0
6.821728174E0,-1.285682172E-1,4.669143632E-2,-2.739302635E0,2.742715589E0
6.841044902E0,4.763811827E-2,-2.874890342E-2,2.902038395E-1,2.954896923E-1
6.860362406E0,2.384302765E-1,-6.740634143E-2,3.192169189E0,3.201770877E0
6.879684981E0,3.957723677E-1,-4.119583964E-2,4.722321510E0,4.739056162E0
6.898995162E0,4.431455135E-1,-2.863445878E-2,4.250651360E0,4.273784606E0
6.918337314E0,3.562844396E-1,-3.049460053E-2,2.110458851E0,2.140538503E0
6.937653475E0,1.107293367E-1,-3.466650099E-2,-9.261105061E-1,9.333506424E-1
6.956973372E0,-1.884782165E-1,3.154183971E-3,-3.574684620E0,3.579651396E0
6.976317438E0,-3.673717678E-1,4.405346513E-2,-4.623900414E0,4.638680605E0
6.995638246E0,-3.363468945E-1,3.247155994E-2,-3.692552328E0,3.707981436E0
7.014954514E0,-1.107885167E-1,-1.812725142E-2,-1.201923251E0,1.207154586E0
7.034269578E0,1.483825147E-1,-4.179253429E-2,1.836923003E0,1.843380076E0
7.053614127E0,3.567667007E-1,-4.132052884E-2,4.066982269E0,4.082809651E0
7.072936018E0,4.349258542E-1,-2.882944234E-2,4.568594933E0,4.589341052E0
7.092253650E0,3.038077652E-1,-4.287691414E-2,3.214541674E0,3.229150935E0
7.111601153E0,1.174071655E-1,-4.463498294E-2,5.300396681E-1,5.447189862E-1
7.130923253E0,-1.134089902E-1,-8.027447388E-3,-2.370252132E0,2.372977288E0
7.150183665E0,-3.018492758E-1,5.714931712E-2,-4.214666367E0,4.225848035E0
7.169525577E0,-3.414883018E-1,4.381094873E-2,-4.228335381E0,4.242328812E0
7.188880478E0,-1.510442495E-1,-2.193193696E-2,-2.424899101E0,2.429697723E0
7.208207591E0,1.180841252E-1,-4.553244263E-2,4.064290226E-1,4.256778293E-1
7.227530981E0,3.046819270E-1,-2.908547223E-2,3.077019691E0,3.092204266E0
7.246868684E0,3.880236149E-1,-2.900494449E-2,4.420714378E0,4.437805677E0
7.266185528E0,3.391441703E-1,-5.684449524E-2,3.954403162E0,3.969326698E0
7.285506697E0,2.119693011E-1,-5.809837207E-2,1.843961000E0,1.857013349E0
7.304855785E0,-1.701452304E-3,-7.278089877E-3,-1.030215025E0,1.030242138E0
7.324171280E0,-2.346968055E-1,4.348588735E-2,-3.422358990E0,3.430672626E0
7.343373897E0,-3.636633754E-1,2.935285494E-2,-4.296629429E0,4.312091962E0
7.362696587E0,-2.512998879E-1,-1.006104425E-2,-3.354128599E0,3.363544487E0
7.382014091E0,8.550750092E-3,-3.460731357E-2,-9.891469479E-1,9.897891017E-1
7.401357323E0,1.536620706E-1,-1.674702577E-2,1.836462498E0,1.842956049E0
7.420674955E0,3.327743113E-1,-2.983047068E-2,3.874629736E0,3.889008124E0
7.439992715E0,3.750982583E-1,-5.763061345E-2,4.266838074E0,4.283681494E0
7.459311822E0,3.493973911E-1,-7.244456559E-2,2.906251669E0,2.928075394E0
7.478629582E0,2.094412148E-1,-2.151795663E-2,3.458615839E-1,4.049060140E-1
7.497972686E0,-5.534892157E-2,4.304928333E-2,-2.345834732E0,2.346882471E0
7.517290446E0,-3.064046204E-1,1.535237022E-2,-3.996556759E0,4.008314535E0
7.536608206E0,-3.795005381E-1,-3.750561178E-2,-3.871445894E0,3.890182597E0
7.555972802E0,-2.086014152E-1,-8.370249532E-3,-2.146918058E0,2.157044682E0
7.575315906E0,5.607154965E-2,2.175514400E-2,4.949438572E-1,4.985847237E-1
7.594633538E0,2.337238640E-1,-1.677732356E-2,2.985722303E0,2.994903337E0
7.613951298E0,3.408806026E-1,-7.117123157E-2,4.214346409E0,4.228709092E0
7.633294402E0,3.610551655E-1,-7.281097025E-2,3.634081364E0,3.652698951E0
7.652615250E0,2.693039477E-1,-2.079891972E-2,1.577690840E0,1.600645369E0
7.671961695E0,6.278757751E-2,3.330836305E-3,-1.089164734E0,1.090978090E0
7.691304799E0,1.302242577E-1,2.056578640E-3,-1.092525840E0,1.100261468E0
7.710622559E0,-1.945235133E-1,1.215964672E-3,-3.260625124E0,3.266422672E0
7.729979713E0,-2.468360662E-1,2.547989367E-3,-3.026180267E0,3.036231471E0
7.749301817E0,5.319928285E-3,4.798755981E-3,-7.701581717E-1,7.701914951E-1
7.768619705E0,2.083837241E-1,-1.926828735E-2,1.885123730E0,1.896704120E0
7.787962937E0,3.151967525E-1,-5.855711550E-2,3.707628250E0,3.721462773E0
7.807280697E0,3.367748260E-1,-5.881533399E-2,3.981881618E0,3.996530714E0
7.826615846E0,2.396945059E-1,-3.283865750E-2,2.611256838E0,2.622440487E0
7.845922472E0,6.502018869E-2,-8.119775914E-3,1.874560118E-1,1.985782265E-1
7.865270251E0,-1.486430317E-1,-1.124650054E-2,-2.288094521E0,2.292945217E0
7.884588267E0,-2.942593992E-1,-1.290343143E-2,-3.736584902E0,3.748175799E0
7.903906155E0,-2.784334421E-1,1.475453749E-2,-3.586270809E0,3.597093437E0
7.923224171E0,-9.670241922E-2,1.654463634E-2,-1.877872229E0,1.880433245E0
7.942578861E0,1.124353111E-1,-3.477223963E-2,6.666254997E-1,6.769345350E-1
7.961899109E0,2.322891057E-1,-7.292333990E-2,2.953613758E0,2.963631265E0
7.981210988E0,3.128631413E-1,-4.557944834E-2,3.940700531E0,3.953363316E0
8.000527481E0,3.536037803E-1,-2.017828263E-2,3.291850328E0,3.310849042E0
8.019878862E0,2.402838022E-1,-3.549584746E-2,1.345312834E0,1.367063598E0
8.039189946E0,2.045151219E-2,-2.483459748E-2,-1.157182574E0,1.157629704E0
8.058456718E0,-1.965416521E-1,2.181500749E-4,-3.136802197E0,3.142953498E0
8.077774862E0,-3.291783333E-1,1.422571391E-2,-3.735654593E0,3.750156794E0
8.097118350E0,-2.637951970E-1,2.991481684E-2,-2.708507299E0,2.721487570E0
8.116436494E0,-7.480311394E-2,-2.166378871E-2,-4.913541973E-1,4.974874599E-1
8.135754766E0,1.453685164E-1,-4.680163786E-2,1.931345940E0,1.937374393E0
8.155102974E0,2.817244828E-1,-4.639452696E-2,3.558403015E0,3.569839374E0
8.174421118E0,3.349518478E-1,-4.716244340E-2,3.690916300E0,3.706383705E0
8.193739390E0,2.877421975E-1,-4.872054979E-2,2.290672541E0,2.309188159E0
8.213057790E0,1.250642091E-1,-1.067462657E-2,-2.254789323E-2,1.275280814E-1
8.232401406E0,1.988501549E-1,-1.215275563E-2,-2.676019073E-2,2.010104012E-1
8.251717623E0,-7.980410010E-2,-2.711597190E-4,-2.292079926E0,2.293468804E0
8.271035895E0,-2.601124048E-1,3.166485112E-4,-3.244746923E0,3.255156089E0
8.290379383E0,-8.997080475E-2,-2.500684373E-2,-1.563434482E0,1.566220759E0
8.309697655E0,1.296136975E-1,-8.786019869E-3,8.035797477E-1,8.140130930E-1
8.329015927E0,2.632513046E-1,-3.399881721E-2,2.857950211E0,2.870250263E0
8.348334777E0,2.868764997E-1,-4.706296325E-2,3.721360922E0,3.732698777E0
8.367678521E0,2.527251244E-1,-6.138293818E-2,3.022334814E0,3.033503846E0
8.386996665E0,1.531933695E-1,-3.574348241E-2,1.077287674E0,1.088712330E0
8.406315065E0,-4.116203263E-2,2.007530769E-3,-1.276269913E0,1.276935094E0
8.425658681E0,-2.484162003E-1,1.306025218E-2,-3.053328753E0,3.063445389E0
8.444976953E0,-3.142660856E-1,-6.125464570E-4,-3.463299274E0,3.477528636E0
8.464296700E0,-1.830771416E-1,-1.266084798E-2,-2.383766174E0,2.390819673E0
8.483614972E0,2.670937590E-2,2.986299573E-3,-2.912804186E-1,2.925176764E-1
8.502933244E0,2.002181858E-1,-2.188516967E-2,1.953909755E0,1.964263122E0
8.522276988E0,2.663789392E-1,-4.767223448E-2,3.419807911E0,3.430498000E0
8.541595260E0,2.655214369E-1,-6.165381148E-2,3.433509588E0,3.444312837E0
8.560911027E0,2.494963408E-1,-5.060636997E-2,2.003403902E0,2.019513957E0
8.580229299E0,1.034602225E-1,1.348706312E-3,-1.999457628E-1,2.251313943E-1
8.599547699E0,-1.218527034E-1,-5.752929719E-4,-2.290126324E0,2.293365865E0
8.618891315E0,-2.975054383E-1,-1.444462035E-2,-3.340242147E0,3.353496047E0
8.638209587E0,-2.853131294E-1,3.379770496E-4,-2.941836119E0,2.955639262E0
8.657526390E0,-1.237752885E-1,2.426025691E-3,-1.285518408E0,1.291465750E0
8.676844662E0,6.904767454E-2,-2.244483307E-2,9.455924630E-1,9.483756945E-1
8.696188278E0,1.927703321E-1,-4.828293994E-2,2.806146383E0,2.813174216E0
8.715506550E0,2.865448892E-1,-6.216509268E-2,3.500929594E0,3.513186658E0
8.734824694E0,2.960885763E-1,-3.636265919E-2,2.716609955E0,2.732939870E0
8.754173113E0,1.816059649E-1,-1.127013750E-2,8.125472069E-1,8.326708269E-1
8.773491385E0,-3.655272350E-2,-2.722755261E-2,-1.347719431E0,1.348489935E0
8.792809657E0,-2.250068486E-1,-2.838307060E-2,-2.903962851E0,2.912805163E0
8.812128057E0,-2.250225991E-1,-2.838420123E-2,-2.903962135E0,2.912805678E0
8.831446457E0,-1.962585598E-1,1.444472838E-2,-2.093166590E0,2.102396833E0
8.850821007E0,3.704398498E-2,-1.152281929E-2,-7.220513374E-2,8.196714906E-2
8.870150391E0,1.689164340E-1,-4.990800098E-2,2.008731842E0,2.016439234E0
8.889449331E0,2.618215382E-1,-4.888939485E-2,3.255534172E0,3.266411400E0
8.908767731E0,2.419088334E-1,-4.959623516E-2,3.118664503E0,3.128425795E0
8.928111475E0,1.605922729E-1,-3.724550083E-2,1.721156716E0,1.729033703E0
8.947429875E0,3.514041658E-3,-3.909174725E-2,-3.596448600E-1,3.617802351E-1
8.966750479E0,-1.674803942E-1,1.283904258E-2,-2.260560513E0,2.266792526E0
8.986094351E0,-2.570587993E-1,3.854738921E-2,-3.162517786E0,3.173181979E0
9.005412751E0,-2.225950956E-1,-1.559348544E-3,-2.656927109E0,2.666235674E0
9.024731023E0,-9.004843235E-2,-4.017831758E-2,-1.002535343E0,1.007372886E0
9.044049423E0,1.077248901E-1,-5.131956562E-2,1.104890823E0,1.111315473E0
9.063396303E0,2.272596657E-1,-2.284391411E-2,2.721328020E0,2.730896372E0
9.082714703E0,2.738783956E-1,-2.275999077E-2,3.255682945E0,3.267261672E0
9.102033231E0,1.943071932E-1,-5.071306974E-2,2.433426857E0,2.441698869E0
9.121394044E0,1.370632201E-1,-5.340464786E-2,6.075802445E-1,6.251336947E-1
9.140724275E0,-1.158180013E-1,-2.761576883E-2,-1.412880778E0,1.417888759E0
9.159956580E0,-2.118441463E-1,1.097326819E-2,-2.821566820E0,2.829529586E0
9.179300452E0,-2.710247636E-1,2.547052875E-2,-2.956187248E0,2.968694362E0
9.198618980E0,-2.017883956E-1,-1.352031622E-2,-1.778719664E0,1.790180158E0
9.217937508E0,-2.616891451E-2,-5.202374980E-2,1.376732439E-1,1.494831252E-1
9.237281252E0,1.240778863E-1,-5.049585924E-2,2.053423643E0,2.057788573E0
9.256598431E0,2.399784923E-1,-3.681606799E-2,3.105223894E0,3.114700713E0
9.275979103E0,2.676777244E-1,-5.132268369E-2,2.868828773E0,2.881746678E0
9.295297503E0,2.111631930E-1,-5.278515816E-2,1.470000863E0,1.486027828E0
9.314766081E0,4.495887458E-2,-2.792198025E-2,-5.137773752E-1,5.164960103E-1
9.333982592E0,-1.648117453E-1,1.077789534E-2,-2.262095690E0,2.268117277E0
9.353294072E0,-2.916482091E-1,-2.790208673E-3,-2.984439611E0,2.998657409E0
9.372612472E0,-2.715239823E-1,-2.829169109E-2,-2.381160736E0,2.396758675E0
9.391956088E0,-3.323282897E-1,-2.732316963E-2,-2.377514601E0,2.400784106E0
9.411274488E0,-1.798110455E-1,-3.923051432E-2,-7.473525405E-1,7.696797159E-1
9.430592888E0,2.313951701E-1,-1.058034319E-2,2.666488886E0,2.676531085E0
9.449955558E0,2.201412320E-1,-5.090951174E-2,3.063693762E0,3.072014552E0
9.469281556E0,1.585977226E-1,-6.521883607E-2,2.159427643E0,2.166225861E0
9.488590338E0,6.115382165E-2,-2.653476223E-2,3.794053197E-1,3.852171856E-1
9.507937816E0,-9.661611915E-2,1.200388465E-2,-1.508544922E0,1.511683349E0
9.527258646E0,-2.330079824E-1,-3.038422670E-3,-2.711561441E0,2.721556063E0
9.546568093E0,-2.458861768E-1,-1.647109352E-2,-2.711599827E0,2.722775226E0
9.565907164E0,-1.221724004E-1,-1.524385065E-2,-1.535883784E0,1.540810653E0
9.585220619E0,5.090650544E-2,-1.332654431E-2,2.974446416E-1,3.020635428E-1
9.604538379E0,1.639681607E-1,-3.877028450E-2,2.077259302E0,2.084081309E0
9.623888052E0,2.127527893E-1,-5.150241032E-2,2.954172134E0,2.962270961E0
9.643210533E0,2.085198909E-1,-5.197105184E-2,2.625248909E0,2.634029873E0
9.662524158E0,1.277814209E-1,-2.622764558E-2,1.200798512E0,1.207863008E0
9.681841763E0,-4.437045753E-2,-9.600901976E-4,-6.742205024E-1,6.756796172E-1
9.701178210E0,-1.860497445E-1,-1.671497524E-2,-2.220847368E0,2.228689510E0
9.720484526E0,-2.677188814E-1,-3.021584637E-2,-2.779285908E0,2.792313835E0
9.739826608E0,-2.091810554E-1,1.172202826E-2,-2.121246815E0,2.131568007E0
9.759148562E0,-7.305593789E-2,1.347579528E-2,-5.332959890E-1,5.384453352E-1
9.778472078E0,5.801190436E-2,-3.897553682E-2,1.327889919E0,1.329727834E0
9.797816685E0,1.774622500E-1,-6.536391377E-2,2.640407085E0,2.647171107E0
9.817140222E0,2.412708998E-1,-5.280776694E-2,2.856318235E0,2.866976486E0
9.836454463E0,1.980794072E-1,-4.067767411E-2,1.854410648E0,1.865403168E0
9.855786220E0,8.974837512E-2,-1.433832222E-3,1.431375146E-1,1.689531734E-1
9.875102134E0,-6.826436520E-2,-3.043388017E-2,-1.551764488E0,1.553563411E0
9.894435238E0,-2.231951356E-1,-1.771906763E-2,-2.602399826E0,2.612013570E0
9.913751836E0,-2.541991174E-1,1.020497922E-2,-2.491082191E0,2.504039101E0
9.933071809E0,-1.689367443E-1,-1.656470122E-3,-1.258874536E0,1.270160409E0
9.952417456E0,-2.313071191E-1,-6.968409871E-4,-1.254565001E0,1.275710316E0
9.971728620E0,-6.725602597E-2,-3.997106850E-2,5.245189071E-1,5.303217356E-1
9.991027839E0,2.345040143E-1,-3.947551921E-2,2.790009737E0,2.800125851E0
1.001038368E1,1.838581115E-1,-4.030025378E-2,2.337829113E0,2.345393971E0
1.002969786E1,7.593864202E-2,-5.520127714E-2,9.271562696E-1,9.318973154E-1
1.004904452E1,-7.640013099E-2,-2.968616597E-2,-8.246004581E-1,8.286640840E-1
1.006834891E1,-1.740515530E-1,9.197043255E-3,-2.205704927E0,2.212580565E0
1.008767585E1,-2.291890681E-1,2.207707986E-2,-2.615708590E0,2.625823005E0
1.010701331E1,-1.848526448E-1,-3.118834272E-2,-1.877472401E0,1.886808371E0
1.012632642E1,-3.314026073E-2,-4.265976325E-2,-2.772735059E-1,2.824866888E-1
1.014566818E1,1.226895824E-1,-2.757531404E-2,1.433820128E0,1.439323901E0
1.016498136E1,1.963237524E-1,-4.052916914E-2,2.529792309E0,2.537722356E0
1.018430382E1,1.919315904E-1,-4.032379761E-2,2.611898661E0,2.619251488E0
1.020363910E1,1.245632246E-1,-5.475964025E-2,1.625444293E0,1.631129598E0
1.022295363E1,5.561427213E-3,-2.959216014E-2,-4.464687407E-2,5.385135819E-2
1.024224214E1,-1.180233955E-1,9.175947867E-3,-1.645071745E0,1.649325549E0
1.026158063E1,-2.239908725E-1,-5.285584833E-3,-2.492689848E0,2.502739005E0
1.028089787E1,-2.462761700E-1,-1.815574430E-2,-2.258443832E0,2.271904515E0
1.030021512E1,-1.318978667E-1,-1.651558094E-2,-9.989141822E-1,1.007719879E0
1.031953224E1,2.841613069E-2,-2.832254022E-2,6.846203208E-1,6.857948865E-1
1.033887483E1,1.325561106E-1,-2.728482708E-2,2.107187510E0,2.111529016E0
1.035818434E1,1.970915943E-1,-5.460523069E-2,2.665931940E0,2.673765124E0
1.037750146E1,1.964848787E-1,-5.558805913E-2,2.115474224E0,2.125306456E0
1.039684380E1,1.283977926E-1,-3.016587533E-2,6.908377409E-1,7.033155461E-1
1.041617912E1,-2.638074756E-2,-5.014711060E-3,-9.774552584E-1,9.778240503E-1
1.043549599E1,-1.894394308E-1,7.687339559E-3,-2.192708015E0,2.200889555E0
1.045482120E1,-2.612209618E-1,-1.898430288E-2,-2.423329353E0,2.437441681E0
1.047415813E1,-2.070305347E-1,-3.129261360E-2,-1.601302743E0,1.614933851E0
1.049347512E1,-3.237825260E-2,-1.621332578E-2,-6.818985939E-2,7.720803130E-2
1.051279211E1,1.198690236E-1,-1.486753486E-2,1.519114256E0,1.523908708E0
1.053212808E1,9.291284531E-2,-1.445422694E-2,1.521411300E0,1.524314293E0
1.055144507E1,1.894129515E-1,-4.167395458E-2,2.488355398E0,2.495901956E0
1.057075803E1,9.934882075E-2,-5.634895712E-2,1.365418196E0,1.370186937E0
1.059007476E1,-2.316608466E-2,-1.721226610E-2,-2.361547351E-1,2.379117241E-1
1.060942807E1,-1.289146692E-1,8.166680112E-3,-1.713324904E0,1.718187392E0
1.062874481E1,-2.050700784E-1,-6.301080808E-3,-2.396904469E0,2.405669236E0
1.064806845E1,-2.027178556E-1,-4.629027098E-2,-2.027811527E0,2.038444728E0
1.066741091E1,-8.416491747E-2,-1.747446321E-2,-7.423737645E-1,7.473338588E-1
1.068672783E1,7.896750420E-2,-1.625923067E-2,8.315952420E-1,8.354943901E-1
1.070593675E1,1.699154228E-1,-4.215823114E-2,2.118782759E0,2.126003045E0
1.072527909E1,1.704184711E-1,-6.862686574E-2,2.516061544E0,2.522759956E0
1.074459595E1,1.458965689E-1,-5.570335314E-2,1.885830402E0,1.892285649E0
1.076391217E1,5.043317378E-2,-3.065200290E-3,4.483034611E-1,4.511417667E-1
1.078322903E1,-8.918832242E-2,-4.820331000E-3,-1.097899437E0,1.101526652E0
1.080257124E1,-2.086786330E-1,-3.301455081E-2,-2.137194157E0,2.147611603E0
1.082188810E1,-2.287087142E-1,-4.667309299E-2,-2.260168791E0,2.272190357E0
1.084120471E1,-1.286437064E-1,-1.823895983E-2,-1.368672729E0,1.374826135E0
1.086052574E1,3.080019914E-2,9.781623259E-3,1.062759534E-1,1.110806494E-1
1.087986794E1,7.716515660E-2,-5.598646775E-2,1.600992799E0,1.603828821E0
1.089918494E1,1.338403970E-1,-6.919460744E-2,2.420350075E0,2.425035181E0
1.091850180E1,1.771827787E-1,-5.656007305E-2,2.212390423E0,2.220194623E0
1.093784401E1,1.471277028E-1,-1.739739813E-2,1.101986170E0,1.111900512E0
1.095716087E1,1.767563075E-2,-5.200705491E-3,-4.303702116E-1,4.307644302E-1
1.097648255E1,-1.454308629E-1,-3.353542835E-2,-1.741933823E0,1.748315819E0
1.099579942E1,-2.214620560E-1,-4.734961689E-2,-2.273438215E0,2.284690077E0
1.101511641E1,-1.992591023E-1,-5.767815281E-3,-1.806919813E0,1.817882468E0
1.103445874E1,-8.053401858E-2,9.164568968E-3,-5.337082744E-1,5.398279722E-1
1.105377561E1,2.800561301E-2,-3.003084473E-2,9.717798829E-1,9.726470618E-1
1.107314532E1,1.261214912E-1,-5.632924661E-2,2.133817434E0,2.138283531E0
1.109250763E1,2.082313746E-1,-5.682573095E-2,2.364170313E0,2.374003104E0
1.111182475E1,2.392716259E-1,-5.756206065E-2,2.361597300E0,2.374385417E0
1.113116708E1,2.360887676E-1,-1.821874268E-2,1.605420351E0,1.622789060E0
1.115048420E1,-1.383363307E-1,-6.055025756E-2,-1.179944038E0,1.189567656E0
1.116980775E1,-2.001857013E-1,-2.076123096E-2,-2.082422495E0,2.092125424E0
1.118915034E1,-1.613351107E-1,1.960027218E-2,-2.082307816E0,2.088640473E0
1.120848616E1,-8.934258670E-2,-6.546074059E-3,-1.152360916E0,1.155837631E0
1.122783687E1,2.357727615E-3,-5.901117623E-2,3.252647817E-1,3.305829034E-1
1.124620202E1,1.023887023E-1,-5.765273795E-2,1.680635691E0,1.684738439E0
1.126552042E1,1.672061682E-1,-3.030804545E-2,2.310869217E0,2.317108763E0
1.128486301E1,1.864319295E-1,-3.627737751E-3,2.009589911E0,2.018222394E0
1.130418026E1,7.227911800E-2,-4.520387203E-2,8.865936995E-1,8.906829115E-1
1.132352285E1,-7.342685759E-2,-6.022010371E-2,-5.642235875E-1,5.721592619E-1
1.134283997E1,-1.708735824E-1,-3.472512215E-2,-1.754109502E0,1.762754594E0
1.136215458E1,-1.989708394E-1,1.892174035E-2,-2.150584221E0,2.159851828E0
1.138149717E1,-1.555351019E-1,6.064064335E-3,-1.589970350E0,1.597571174E0
1.140081442E1,-5.077323318E-2,-6.035743281E-2,-3.314589560E-1,3.407139275E-1
1.142013167E1,2.155072428E-2,-5.821676552E-2,1.108512878E0,1.110249714E0
1.143947426E1,1.430012286E-1,-3.083373047E-2,2.092686892E0,2.097793721E0
1.145879744E1,1.776167750E-1,-4.054211546E-3,2.199874878E0,2.207037298E0
1.147812994E1,1.301066726E-1,-4.561035335E-2,1.417535305E0,1.424224137E0
1.149744719E1,3.605144098E-2,-6.069592386E-2,7.590201497E-2,1.036572113E-1
1.151676444E1,-9.160066396E-2,-2.191108279E-2,-1.290871263E0,1.294302667E0
1.153610690E1,-1.895249039E-1,4.726086743E-3,-2.082247972E0,2.090860742E0
1.155542415E1,-2.139065415E-1,-2.125857584E-2,-1.889386773E0,1.901575745E0
1.157473555E1,-1.346815974E-1,-4.691509902E-2,-8.897435069E-1,9.011013635E-1
1.159407801E1,-1.149663702E-2,-3.237246722E-2,4.791953266E-1,4.804251350E-1
1.161339526E1,1.012127995E-1,-1.776565425E-2,1.710239768E0,1.713324171E0
1.163271238E1,1.624060124E-1,-3.112443537E-2,2.255638123E0,2.261691355E0
1.165205484E1,1.618901789E-1,-5.923897028E-2,1.856208801E0,1.864196556E0
1.167136756E1,2.053939849E-1,-6.008974090E-2,1.852849364E0,1.865167079E0
1.169070990E1,1.375804543E-1,-4.810214415E-2,6.747974157E-1,6.903576971E-1
1.171002702E1,-1.816544980E-1,-8.490349166E-3,-1.781508088E0,1.790765621E0
1.172934414E1,-2.055642903E-1,-8.875133470E-3,-2.054872751E0,2.065148292E0
1.174868660E1,-1.273885816E-1,-2.184546739E-2,-1.384901881E0,1.390919946E0
1.176799560E1,4.358299077E-3,-2.027353644E-2,-9.901936352E-2,1.011674128E-1
1.178733806E1,1.039870679E-1,-3.255562857E-2,1.242490172E0,1.247258998E0
1.180665493E1,1.423675120E-1,-4.551913217E-2,2.077967644E0,2.083336273E0
1.182597179E1,1.159867048E-1,-4.542766139E-2,2.091515541E0,2.095221670E0
1.184528878E1,6.595496088E-2,-5.986526981E-2,1.215029120E0,1.218289650E0
1.186462553E1,-2.023313381E-2,-3.424962610E-2,-1.264412850E-1,1.325511794E-1
1.188394227E1,-1.266689599E-1,-8.641266264E-3,-1.357701898E0,1.363625366E0
1.190328448E1,-1.800263524E-1,-9.486498311E-3,-1.986671090E0,1.994833703E0
1.192260121E1,-1.704814881E-1,-2.280321904E-2,-1.740500569E0,1.748978604E0
1.194191808E1,-9.055943042E-2,-3.531024605E-2,-6.874534488E-1,6.942910543E-1
1.196126016E1,2.138238214E-2,-4.760289565E-2,6.673870683E-1,6.694241860E-1
1.198056895E1,1.374712437E-1,-3.298075125E-2,1.776466966E0,1.782083318E0
1.199991090E1,1.766927689E-1,-4.668072239E-2,2.159101963E0,2.166822723E0
1.201922764E1,1.525257677E-1,-4.746628925E-2,1.623268723E0,1.631109594E0
1.203854424E1,4.971008003E-2,-3.521849588E-2,4.863546193E-1,4.901553327E-1
1.205788620E1,-5.992004275E-2,-2.324106544E-2,-8.400406241E-1,8.424955839E-1
1.207720070E1,-1.701580733E-1,-2.380973287E-2,-1.768531084E0,1.776857583E0
1.209651718E1,-2.026555091E-1,-2.321679518E-2,-1.903656363E0,1.914553688E0
1.211585913E1,-1.628852040E-1,-2.222582139E-2,-1.163887143E0,1.175439858E0
1.213517574E1,-4.812012985E-2,-2.122680843E-2,8.182267100E-2,9.726805119E-2
1.215451756E1,7.116478682E-2,-3.363145515E-2,1.326852441E0,1.329185052E0
1.217381874E1,1.162387580E-1,-6.026693061E-2,2.064260721E0,2.068409021E0
1.219316031E1,1.512859613E-1,-6.111844629E-2,1.911551476E0,1.918502528E0
1.221247653E1,1.061240807E-1,-2.197072282E-2,9.794413447E-1,9.854188860E-1
1.223181797E1,1.588699408E-2,-9.557316080E-3,-3.067886829E-1,3.073483933E-1
1.225149917E1,5.141090974E-2,-1.009786967E-2,-3.089866638E-1,3.133972033E-1
1.227080739E1,-9.084587544E-2,-3.798333928E-2,-1.400642037E0,1.404098937E0
1.229014870E1,-1.842965335E-1,-3.768419847E-2,-1.549000263E0,1.560380443E0
1.230946467E1,-3.860582784E-2,4.175058100E-3,-4.684571624E-1,4.700637766E-1
1.232878051E1,6.394653767E-2,-2.195948735E-2,8.044950366E-1,8.073311853E-1
1.234812195E1,1.204261631E-1,-6.171627715E-2,1.803997636E0,1.809065734E0
1.236743052E1,1.318983734E-1,-7.477593422E-2,2.050473213E0,2.056071258E0
1.238674624E1,1.178436130E-1,-3.485280275E-2,1.434249878E0,1.439504966E0
1.240608742E1,6.132907700E-3,-9.360975586E-3,2.433016002E-1,2.435588411E-1
1.242540313E1,-1.146952510E-1,-3.766981885E-2,-9.609161615E-1,9.684698681E-1
1.244471897E1,-1.848832965E-1,-3.827440366E-2,-1.740443349E0,1.750654110E0
1.246406003E1,-1.583287865E-1,-1.130086649E-2,-1.754022956E0,1.761190576E0
1.248337587E1,-1.031406373E-1,-1.076501608E-2,-9.607839584E-1,9.663641609E-1
1.250271692E1,-9.776790626E-3,-3.644347936E-2,2.707060575E-1,2.733230367E-1
1.252225516E1,8.975564688E-2,-6.234603375E-2,1.420698404E0,1.424895456E0
1.254157100E1,1.334638596E-1,-4.864096269E-2,1.955006957E0,1.960160898E0
1.256091206E1,1.479087174E-1,-4.929015040E-2,1.733677149E0,1.740673135E0
1.258022906E1,7.470439374E-2,-3.668754920E-2,7.880822420E-1,7.924647266E-1
1.259954490E1,-2.204317786E-2,-3.818805516E-2,-4.431692362E-1,4.453573859E-1
1.261888596E1,-1.219505519E-1,-2.567323297E-2,-1.467729688E0,1.473011028E0
1.263820167E1,-1.783212721E-1,-1.193204056E-2,-1.808128595E0,1.816939698E0
1.265751738E1,-1.905921102E-1,-3.832087293E-2,-1.341786265E0,1.355796527E0
1.267686238E1,-9.475957602E-2,-3.721611202E-2,-2.738675773E-1,2.921777989E-1
1.269617822E1,2.138461731E-2,-3.621706739E-2,9.440154433E-1,9.449519221E-1
1.271549394E1,1.216023266E-1,-3.586054221E-2,1.777800322E0,1.782315092E0
1.273483512E1,1.390989572E-1,-4.982430860E-2,1.885315776E0,1.891096654E0
1.275415096E1,1.064316183E-1,-6.435703486E-2,1.212993145E0,1.219353061E0
1.277346692E1,-1.805419335E-3,-3.240758926E-2,7.752308249E-2,8.404367733E-2
1.279280810E1,-8.816418797E-2,-5.789143499E-3,-1.043476224E0,1.047210136E0
1.281212381E1,-1.760817468E-1,7.277654950E-3,-1.725769639E0,1.734744532E0
1.283143965E1,-1.857448071E-1,7.509385236E-3,-1.725189328E0,1.735175998E0
1.285078084E1,-2.270138562E-1,-1.865730248E-2,-1.585505247E0,1.601783467E0
1.287010046E1,2.284727292E-3,-4.484261572E-2,4.226131737E-1,4.249917349E-1
1.288941642E1,8.238106221E-2,-3.033766896E-2,1.449612737E0,1.452268605E0
1.290875761E1,1.074727923E-1,-4.353252053E-2,1.887919545E0,1.891477119E0
1.292807358E1,7.641405612E-2,-4.401305690E-2,1.545447230E0,1.547961046E0
1.294741489E1,5.913387053E-3,-3.155763075E-2,5.731926560E-1,5.740911715E-1
1.296673073E1,-9.166549891E-2,-1.910763234E-2,-5.902455449E-1,5.976265294E-1
1.298604657E1,-1.681858152E-1,-2.004971728E-2,-1.479428053E0,1.489092282E0
1.300538801E1,-1.944623739E-1,-6.926993839E-3,-1.711860061E0,1.722883764E0
1.302470372E1,-1.224664822E-1,-3.374826908E-2,-1.178372860E0,1.185200229E0
1.304404516E1,-4.548614100E-2,-4.614125565E-2,-1.110593677E-1,1.285775550E-1
1.306336100E1,5.364866555E-2,-3.140587360E-2,1.052547574E0,1.054381764E0
1.308267248E1,9.976764768E-2,-4.458976537E-2,1.764840841E0,1.768220865E0
1.310201366E1,1.003282219E-1,-4.472790658E-2,1.764794350E0,1.768209669E0
1.312132950E1,4.080419987E-2,-5.906252190E-2,1.038868189E0,1.041345513E0
1.314064547E1,-5.194264278E-2,-4.048166052E-2,-6.976687163E-2,9.593862285E-2
1.315998665E1,-1.107557267E-1,-8.149014320E-4,-1.138288260E0,1.143664136E0
1.317930276E1,-1.792646050E-1,-9.226353723E-4,-1.656682014E0,1.666352888E0
1.319864394E1,-1.883307844E-1,-1.369758230E-2,-1.450082421E0,1.462325250E0
1.321795979E1,-1.364035159E-1,-3.994680941E-2,-5.871455669E-1,6.041039509E-1
1.323727575E1,-3.427454829E-2,-3.894887865E-2,5.218145847E-1,5.243874719E-1
1.325661694E1,5.475344136E-2,-3.814932331E-2,1.479129434E0,1.480634051E0
1.327595579E1,1.100440100E-1,-3.811717406E-2,1.833189607E0,1.836885064E0
1.329527137E1,1.043770090E-1,-3.901388496E-2,1.406941056E0,1.411346796E0
1.331458721E1,3.002042137E-2,-4.006608576E-2,4.069253206E-1,4.099935774E-1
1.333392840E1,-7.782714814E-2,-4.112118110E-2,-7.283036709E-1,7.336036079E-1
1.335324424E1,-1.669928133E-1,1.240111981E-2,-1.493152976E0,1.502513294E0
1.337255996E1,-1.965488344E-1,1.252284925E-2,-1.614742756E0,1.626709081E0
1.339190102E1,-1.457696855E-1,-2.705263160E-2,-9.843618870E-1,9.954641986E-1
1.341121686E1,-1.837950945E-1,-2.631819062E-2,-9.816592932E-1,9.990636876E-1
1.343055804E1,-9.503135830E-2,-5.165495723E-2,5.706014484E-2,1.222908574E-1
1.344987376E1,1.059471667E-1,-2.405829728E-2,1.722286463E0,1.725709785E0
1.346918960E1,1.127252877E-1,-2.408295497E-2,1.640008092E0,1.644053990E0
1.348853078E1,5.512369052E-2,-2.478479780E-2,8.732044101E-1,8.752935789E-1
1.350798532E1,-4.227859527E-2,-2.273077890E-2,-2.212649733E-1,2.264119174E-1
1.352732638E1,-1.278591007E-1,-9.900423698E-3,-1.192575097E0,1.199450428E0
1.354664222E1,-1.679490358E-1,3.342487616E-3,-1.602913022E0,1.611691102E0
1.356595793E1,-1.346204877E-1,-9.970609099E-3,-1.315588117E0,1.322495437E0
1.358527883E1,-7.266874611E-2,-9.210473858E-3,-4.126739204E-1,4.191244971E-1
1.360459467E1,1.644506864E-2,-3.534530103E-2,6.687171459E-1,6.698524851E-1
1.362393585E1,8.284026384E-2,-3.446071967E-2,1.531245708E0,1.533872051E0
1.364325182E1,1.097045764E-1,-3.447224200E-2,1.736709833E0,1.740512704E0
1.366259301E1,8.914239705E-2,-2.167118527E-2,1.229987025E0,1.233403458E0
1.368190743E1,-1.213940326E-2,-3.216653317E-2,2.309082896E-1,2.334538266E-1
1.370122327E1,-1.183788255E-1,-1.914503798E-2,-8.364351392E-1,8.449874679E-1
1.372056445E1,-1.773225963E-1,-6.652086508E-3,-1.493398190E0,1.503903490E0
1.373988029E1,-1.720169932E-1,7.438044529E-3,-1.492032528E0,1.501934165E0
1.375919613E1,-1.226622015E-1,8.519803174E-3,-8.206733465E-1,8.298333233E-1
1.377861946E1,-2.452155016E-2,-3.134722263E-2,2.045837045E-1,2.084189217E-1
1.379793517E1,4.662141576E-2,-4.417770728E-2,1.189235687E0,1.190968827E0
1.381727661E1,1.155478656E-1,-3.055423312E-2,1.680603147E0,1.684847710E0
1.383659232E1,1.220650077E-1,-1.761277206E-2,1.487227440E0,1.492332246E0
1.385590816E1,7.888504863E-2,-1.866217330E-2,6.787187457E-1,6.835424372E-1
1.387525172E1,-1.566980965E-2,-1.983139664E-2,-3.747108579E-1,3.755623174E-1
1.389456768E1,-1.088286787E-1,-2.056791633E-2,-1.235458732E0,1.240413237E0
1.391388352E1,-1.783365309E-1,-7.029827219E-3,-1.548641920E0,1.558892278E0
1.393322471E1,-1.412005872E-1,-6.401803810E-3,-1.137259126E0,1.146009122E0
1.395254068E1,-5.630879104E-2,-1.797071658E-2,-2.212591469E-1,2.290179834E-1
1.397185652E1,-8.885870874E-2,-1.734929159E-2,-2.189356238E-1,2.369170222E-1
1.399117337E1,1.119782869E-2,-3.039490804E-2,7.927351594E-1,7.933966692E-1
1.401056463E1,1.385213584E-1,-3.040556237E-2,1.610654354E0,1.616885931E0
1.402988060E1,8.115305007E-2,-4.451039806E-2,1.062910795E0,1.066933152E0
1.404919631E1,-1.127888169E-2,-1.460119523E-2,7.808339596E-2,8.023356404E-2
1.406853775E1,-6.871706992E-2,1.175643411E-2,-8.796388507E-1,8.823971652E-1
1.408786032E1,-1.261946857E-1,1.092673000E-2,-1.453989625E0,1.459496599E0
1.410717629E1,-1.189551950E-1,-1.601618528E-2,-1.358271360E0,1.363564426E0
1.412651773E1,-7.123591751E-2,-1.513296366E-2,-6.470687389E-1,6.511539875E-1
1.414583383E1,3.622056171E-2,-1.380896382E-2,3.509741724E-1,3.531083208E-1
1.416517514E1,1.138391495E-1,-1.320709381E-2,1.226956010E0,1.232296567E0
1.418449020E1,1.151617318E-1,-3.979419172E-2,1.651191115E0,1.655680495E0
1.420380617E1,9.329374880E-2,-4.002756998E-2,1.363687396E0,1.367460875E0
1.422314748E1,6.755405664E-2,-1.394293923E-2,5.150908828E-1,5.196889201E-1
1.424246358E1,-1.380412187E-2,-1.607854036E-3,-4.974344969E-1,4.976285941E-1
1.426180489E1,-1.121243387E-1,-2.330021234E-3,-1.249713421E0,1.254735403E0
1.428111926E1,-1.265414506E-1,-2.960895747E-2,-1.441142440E0,1.446990311E0
1.430043523E1,-1.147556752E-1,1.179832779E-2,-9.746553898E-1,9.814587074E-1
1.431977654E1,-3.697399748E-3,2.540049329E-2,-8.588035405E-2,8.963420684E-2
1.433909264E1,9.012398124E-2,-1.434148755E-2,8.851621151E-1,8.898539095E-1
1.435840861E1,1.067337021E-1,-4.100367799E-2,1.499908328E0,1.504260076E0
1.437775218E1,1.397020817E-1,-4.154274240E-2,1.512063861E0,1.519071950E0
1.439706814E1,1.261949539E-1,-1.555953827E-2,8.952202797E-1,9.042049628E-1
1.441638411E1,4.187353700E-2,1.382844057E-2,-6.166731939E-2,7.581211744E-2
1.443572555E1,-7.372525334E-2,-2.720691264E-2,-9.499294758E-1,9.531745056E-1
1.445504139E1,-1.302672774E-1,-1.386369020E-2,-1.400075912E0,1.406191426E0
1.447435736E1,-1.204618588E-1,1.365088206E-2,-1.221167564E0,1.227170578E0
1.449370017E1,-7.183685899E-2,1.472068392E-2,-4.954259992E-1,5.008234754E-1
1.451301613E1,2.938970923E-2,-1.212643925E-2,4.750054777E-1,4.760682822E-1
1.453235757E1,1.005600095E-1,-3.897467628E-2,1.254165053E0,1.258793598E0
1.455167367E1,9.535038471E-2,-3.902471811E-2,1.254562616E0,1.258785916E0
1.457098964E1,1.719995439E-1,-2.598305792E-2,1.538918853E0,1.548718889E0
1.459033504E1,4.253885522E-2,-9.792125784E-3,3.641364574E-1,3.667435065E-1
1.460968231E1,-4.303348809E-2,-2.443334647E-2,-5.799121857E-1,5.820197699E-1
1.462899853E1,-1.070408747E-1,1.850739238E-3,-1.263648033E0,1.268174880E0
1.464833997E1,-1.012407020E-1,1.473832992E-3,-1.359325409E0,1.363091127E0
1.466766989E1,-5.505453423E-2,1.563006081E-2,-8.396407366E-1,8.415888943E-1
1.468698586E1,1.506570168E-2,-2.461954951E-2,6.265576184E-2,6.898436110E-2
1.470633514E1,9.098216146E-2,-2.377586067E-2,9.794222116E-1,9.839262746E-1
1.472565624E1,1.380789280E-1,-2.346317284E-2,1.499578357E0,1.506104764E0
1.474496822E1,1.174327359E-1,-2.371775918E-2,1.390115142E0,1.395268106E0
1.476428445E1,8.018144220E-2,-2.431039512E-2,7.194534540E-1,7.243157678E-1
1.478360015E1,-5.088405684E-3,4.546246026E-3,-1.966080070E-1,1.967263801E-1
1.480294172E1,-8.682353050E-2,3.520361148E-3,-1.017263889E0,1.020968432E0
1.482225782E1,-1.317773759E-1,1.652707532E-2,-1.372760534E0,1.379170006E0
1.484157391E1,-9.578505903E-2,-1.052188501E-2,-1.099264503E0,1.103479920E0
1.486089001E1,-3.486192552E-3,-1.040487550E-2,-3.337982893E-1,3.339786115E-1
1.488024947E1,3.200296313E-2,-9.241158143E-3,5.983775258E-1,5.993039730E-1
1.489957029E1,9.433481842E-2,-2.229628153E-2,1.309109569E0,1.312693431E0
1.491889053E1,1.292845607E-1,-2.261761390E-2,1.499207497E0,1.504941584E0
1.493820126E1,1.196691990E-1,-2.353009768E-2,1.046436548E0,1.053519735E0
1.495754620E1,6.121799350E-2,-2.138744853E-2,1.848756075E-1,1.959184931E-1
1.497685601E1,-3.645005822E-2,5.363001488E-3,-6.901336312E-1,6.911163415E-1
1.499617857E1,-1.241327599E-1,1.846450195E-2,-1.277077198E0,1.283228760E0
1.501549394E1,-1.301858574E-1,1.872568205E-2,-1.248664260E0,1.255572157E0
1.503481267E1,-8.700215816E-2,6.078501232E-3,-6.596931815E-1,6.654332554E-1
1.505412369E1,1.563198492E-2,-2.143672481E-2,2.152379006E-1,2.168668854E-1
1.507346215E1,9.447251260E-2,-2.100250125E-2,1.035652637E0,1.040164673E0
1.509279820E1,1.387046576E-1,-2.100430988E-2,1.445040464E0,1.451834049E0
1.511212264E1,1.214871854E-1,-2.117408440E-2,1.280836344E0,1.286759192E0
1.513143352E1,1.667553633E-1,-2.175633051E-2,1.277534366E0,1.288555294E0
1.515074747E1,-2.389260381E-2,9.358610958E-3,-3.052440882E-1,3.063207363E-1
1.517002163E1,-9.791298211E-2,8.481055498E-3,-1.057467341E0,1.062024509E0
1.518935116E1,-1.221854463E-1,-5.410016049E-3,-1.330879331E0,1.336487315E0
1.520866777E1,-1.185754910E-1,-4.874181934E-3,-9.616893530E-1,9.689841672E-1
1.522800985E1,-1.202062797E-2,-4.378478508E-3,-1.689233929E-1,1.694071405E-1
1.524732646E1,7.849879563E-2,9.743476287E-3,7.069104910E-1,7.113223169E-1
1.526667676E1,1.185091361E-1,-3.346469020E-3,1.309327483E0,1.314684020E0
1.528599337E1,9.965962917E-2,-3.016231209E-2,1.405072093E0,1.408924907E0
1.530533532E1,6.463087350E-2,-1.712932624E-2,9.122332335E-1,9.146802916E-1
1.532465205E1,5.143169314E-3,2.368114516E-2,5.060743913E-2,5.611026396E-2
1.534396853E1,-6.171351299E-2,2.287490107E-2,-7.703011632E-1,7.731078197E-1
1.536328527E1,-1.119225919E-1,-4.627224524E-3,-1.248958588E0,1.253971942E0
1.538264588E1,-1.182246655E-1,-1.817545481E-2,-1.153234601E0,1.159421176E0
1.540198322E1,-5.127321929E-2,-4.132102244E-3,-5.512973666E-1,5.536919755E-1
1.542129996E1,1.436022203E-2,1.072617248E-2,3.252506256E-1,3.257441269E-1
1.544064229E1,9.879709035E-2,-2.214844339E-3,1.077201247E0,1.081724687E0
1.545995928E1,1.220141873E-1,-1.571153291E-2,1.418016672E0,1.423343106E0
1.547927602E1,1.143142432E-1,-1.638113521E-2,1.170367241E0,1.176050835E0
1.549861836E1,6.475193053E-2,-2.186449710E-3,4.452408850E-1,4.499300376E-1
1.551793535E1,-2.933640033E-2,-1.643824973E-3,-4.292595983E-1,4.302640227E-1
1.553726010E1,-9.563504905E-2,-1.905421261E-3,-1.071237326E0,1.075499466E0
1.555660244E1,-1.301169693E-1,1.167409774E-2,-1.234236002E0,1.241130621E0
1.557591974E1,-1.036164090E-1,2.569446899E-2,-8.365781307E-1,8.433620425E-1
1.559525760E1,-3.882353008E-2,1.093087811E-2,-4.356781766E-2,5.937091308E-2
1.561458012E1,3.608074412E-2,-1.563755609E-2,8.180047870E-1,8.189494397E-1
1.563392419E1,8.467748016E-2,-2.901424654E-2,1.323453188E0,1.326476703E0
1.565323633E1,1.033349484E-1,-2.946588583E-2,1.308402181E0,1.312807151E0
1.567255123E1,9.717149287E-2,-2.928964561E-3,7.600485086E-1,7.662405715E-1
1.569188569E1,1.264722049E-1,-3.455423983E-3,7.580183744E-1,7.685044011E-1
1.571120272E1,4.416377097E-2,1.128371432E-2,-6.185270473E-2,7.683435402E-2
1.573055125E1,-1.329280287E-1,-2.985137049E-3,-1.207655311E0,1.214952724E0
1.574985914E1,-1.180907190E-1,-2.793673659E-3,-1.016208172E0,1.023050473E0
1.576917510E1,-3.046813980E-2,1.087179873E-2,-3.738155365E-1,3.752126849E-1
1.578853813E1,6.027501822E-2,-2.419904340E-3,4.601190090E-1,4.640565011E-1
1.580785730E1,9.745595604E-2,-1.542673353E-2,1.130753279E0,1.135050054E0
1.582717655E1,1.100655720E-1,-1.521188300E-2,1.363406420E0,1.367926495E0
1.584648234E1,7.784964144E-2,-2.067343565E-3,1.034841299E0,1.037767486E0
1.586582519E1,2.517101914E-2,-1.566762337E-3,2.826488018E-1,2.837717042E-1
1.588515030E1,-5.044429004E-2,-1.533071045E-3,-5.241190195E-1,5.265431828E-1
1.590447522E1,-9.545580298E-2,-2.043816494E-3,-1.084868431E0,1.089061752E0
1.592379870E1,-9.175991267E-2,2.469379455E-2,-1.139573574E0,1.143528572E0
1.594312888E1,-6.915637106E-2,1.137174666E-2,-6.881110072E-1,6.916709323E-1
1.596245127E1,-1.745559089E-2,-1.586161181E-2,1.183857992E-1,1.207124096E-1
1.598176246E1,6.765059382E-2,-2.881091833E-2,8.847631216E-1,8.878132986E-1
1.600109283E1,1.057284772E-1,-1.642366988E-3,1.295638084E0,1.299945866E0
1.602043401E1,9.979031235E-2,-1.849709894E-3,1.213327408E0,1.217425532E0
1.603975394E1,7.704190165E-2,-1.426405832E-2,6.233370900E-1,6.282420280E-1
1.605907604E1,-1.541579113E-4,-1.402796432E-2,-1.697189659E-1,1.702977831E-1
1.607842260E1,-4.597719386E-2,1.237635128E-2,-8.802582026E-1,8.815449958E-1
1.609773940E1,-1.249868944E-1,2.592352405E-2,-1.166451693E0,1.173415231E0
1.611705387E1,-1.158922464E-1,2.644413337E-2,-9.056624770E-1,9.134302531E-1
1.613639752E1,-3.449328616E-2,-1.582750864E-2,-2.082681060E-1,2.116976636E-1
1.615571441E1,5.052378401E-2,-2.998386044E-3,5.435170531E-1,5.458685099E-1
1.617505118E1,1.061926112E-1,-2.690398367E-3,1.158363819E0,1.163224332E0
1.619437738E1,9.973699600E-2,-1.653802395E-2,1.307649732E0,1.311552056E0
1.621369334E1,9.769111872E-2,-3.819730366E-3,9.098381996E-1,9.150757862E-1
1.623300831E1,3.219936416E-2,-3.543631407E-3,1.849795133E-1,1.877945066E-1
1.625235002E1,-2.960683964E-2,1.022801362E-2,-5.935466886E-1,5.943726514E-1
1.627166606E1,-9.924973547E-2,9.990444407E-3,-1.084630728E0,1.089208031E0
1.629099003E1,-9.970583022E-2,9.921589866E-3,-1.084601641E0,1.089220092E0
1.631033935E1,-4.788569734E-2,-3.968507517E-3,-5.378973484E-1,5.400392083E-1
1.632965105E1,3.226805106E-2,9.468582459E-3,2.413022816E-1,2.436343003E-1
1.634897374E1,7.968290895E-2,-3.618096467E-3,9.393675327E-1,9.427480141E-1
1.636829443E1,8.415785432E-2,-1.692819223E-2,1.281587958E0,1.284459732E0
1.638763294E1,8.223132044E-2,-3.057354316E-2,1.117257595E0,1.120696777E0
1.640694539E1,3.794851527E-2,-1.539081242E-2,5.015952587E-1,5.032641160E-1
1.642626353E1,-2.631418966E-2,2.607107349E-2,-2.778512537E-1,2.803095729E-1
1.644561423E1,-7.971636951E-2,2.524376102E-2,-9.207127094E-1,9.245019418E-1
1.646493383E1,-1.078107804E-1,2.497506514E-2,-1.098565340E0,1.104125321E0
1.648425318E1,-8.881641179E-2,-1.843913342E-3,-7.839381099E-1,7.889554583E-1
1.650357341E1,-1.695425250E-2,-3.166686511E-3,-1.004957780E-1,1.019650724E-1
1.652292082E1,7.795609534E-2,-1.640961505E-2,6.651034355E-1,6.698574536E-1
1.654224155E1,1.117009372E-1,-2.595153870E-3,1.185189724E0,1.190444672E0
1.656155179E1,9.506747127E-2,-1.635648496E-2,1.226276875E0,1.230065174E0
1.658086466E1,7.216907293E-2,-2.114813309E-3,8.007482290E-1,8.039966255E-1
1.660021494E1,2.087475918E-2,-1.967432443E-3,4.861892015E-2,5.294738669E-2
1.661952639E1,-4.355129600E-2,1.116705686E-2,-6.752513051E-1,6.767464397E-1
1.663884494E1,-1.005685255E-1,-2.590230899E-3,-1.070932269E0,1.075647090E0
1.665818855E1,-1.225030124E-1,-2.201579046E-3,-9.742114544E-1,9.818858349E-1
1.667745272E1,-6.338030845E-2,1.089247223E-2,-3.861489892E-1,3.914674333E-1
1.669677067E1,1.982137002E-2,1.049530227E-2,3.384769261E-1,3.392192028E-1
1.671611428E1,8.250097930E-2,-1.611332595E-2,9.810315967E-1,9.846263477E-1
1.673543269E1,9.435580671E-2,-2.960781008E-2,1.239950418E0,1.243887728E0
1.675475070E1,9.713236988E-2,-3.028698638E-2,1.006191492E0,1.011322559E0
1.677406923E1,6.916406006E-2,-1.358760172E-3,3.632145226E-1,3.697435636E-1
1.679343917E1,-1.803803444E-2,2.670837380E-2,-3.746318817E-1,3.760156309E-1
1.681275757E1,-1.034192741E-1,-6.928370567E-4,-9.209371805E-1,9.267261282E-1
1.683207585E1,-1.031509712E-1,-7.634992944E-4,-9.209538102E-1,9.267128068E-1
1.685141946E1,-1.543025970E-1,-1.430090051E-2,-1.028404355E0,1.040014098E0
1.687075956E1,2.007009089E-2,1.169332210E-2,8.722209372E-3,2.481167601E-2
1.689006931E1,8.897478133E-2,-1.562677091E-3,7.333880067E-1,7.387671636E-1
1.690941812E1,1.006259918E-1,-1.486580726E-2,1.184995174E0,1.189352826E0
1.692874038E1,1.026744097E-1,-1.511189155E-2,1.157602310E0,1.162245031E0
1.694805923E1,4.951586202E-2,1.253984869E-2,6.651840210E-1,6.671423013E-1
1.696740154E1,-1.752308384E-2,-7.826813380E-4,-4.598280415E-2,4.921472681E-2
1.698672315E1,-6.348515302E-2,-1.123317983E-3,-7.157174945E-1,7.185284674E-1
1.700602582E1,-9.668304026E-2,-1.609610859E-3,-1.043933511E0,1.048402297E0
1.702536742E1,-6.744805723E-2,2.570870519E-2,-8.661482334E-1,8.691507005E-1
1.704469087E1,-1.899810508E-2,1.110274345E-2,-2.783334255E-1,2.792018887E-1
1.706401311E1,3.508716077E-2,-1.626174152E-2,4.463548362E-1,4.480270002E-1
1.708333169E1,7.775144279E-2,-2.946420573E-2,1.048469901E0,1.051761646E0
1.710264329E1,1.208423972E-1,-2.256936627E-3,1.212766290E0,1.218773996E0
1.712198433E1,8.557722718E-2,-9.199043270E-4,8.980641961E-1,9.021328108E-1
1.714128902E1,3.653204814E-2,-3.057731374E-4,2.536914349E-1,2.563084629E-1
1.716061601E1,-3.808162734E-2,1.234413218E-2,-4.568136930E-1,4.585644318E-1
1.717993793E1,-8.672169596E-2,2.543313242E-2,-9.483657479E-1,9.526621062E-1
1.719926222E1,-1.265188456E-1,2.569732629E-2,-9.884436727E-1,9.968391369E-1
1.721860847E1,-1.038986370E-1,-3.266633255E-3,-5.505275726E-1,5.602554827E-1
1.723791539E1,-3.852544818E-3,-1.754015125E-2,1.329563409E-1,1.341636597E-1
1.725723226E1,7.913678139E-2,-1.695186272E-2,8.022047281E-1,8.062768889E-1
1.727655790E1,1.238584295E-1,-3.081385046E-3,1.157047033E0,1.163661567E0
1.729588254E1,1.036504358E-1,-3.200494684E-3,1.073826075E0,1.078821623E0
1.731519135E1,5.707016960E-2,-1.611519046E-2,5.537996292E-1,5.569656479E-1
1.733453248E1,1.325534564E-2,-1.825513784E-3,-1.569631994E-1,1.575324812E-1
1.735385056E1,-4.003855214E-2,9.572910517E-2,-1.629774570E0,1.633074492E0
1.737316995E1,-1.222032160E-1,-2.204085328E-2,-8.116917610E-1,8.211351534E-1
