"Time (s)","Linear Acceleration x (m/s^2)","Linear Acceleration y (m/s^2)","Linear Acceleration z (m/s^2)","Absolute acceleration (m/s^2)"
0.000000000E0,-1.015519798E-1,-4.912113026E-2,-1.977078468E-1,2.276270694E-1
1.932044700E-2,-7.409262061E-1,-1.574518830E-1,2.207024097E0,2.333391974E0
3.866553100E-2,-7.420335412E-1,-1.501021385E-1,2.207184553E0,2.333411254E0
5.787735900E-2,-8.519582152E-1,-3.600450978E-2,1.321350813E0,1.572608373E0
7.719794300E-2,-5.047677755E-1,-2.092995197E-1,8.674658090E-2,5.532827175E-1
9.654391100E-2,-4.410790801E-1,-2.801540792E-1,7.978760451E-2,5.285859673E-1
1.158644950E-1,2.746313512E-1,-8.551383764E-2,3.120780468E0,3.134007933E0
1.351683510E-1,-4.297790527E-1,1.430656016E-1,-2.412292957E0,2.454452100E0
1.545119990E-1,5.190988064E0,-4.809943736E-1,4.530259609E0,6.906588506E0
1.738302710E-1,5.700268269E0,-2.875478983E0,5.953015327E0,8.729251354E0
1.931485590E-1,2.105071545E0,4.816237986E-1,-2.421964407E0,3.244872768E0
2.124922070E-1,1.442445219E-1,-3.493386805E-1,4.508162022E0,4.523977101E0
2.318008630E-1,7.647308111E-1,-4.408207163E-2,6.573353767E0,6.617834706E0
2.511620080E-1,9.073562026E-1,1.089697778E-1,8.452411652E0,8.501672331E0
2.705048560E-1,6.873710155E-1,-1.227638349E-1,8.688035965E0,8.716049495E0
2.898222640E-1,5.560180172E-3,-1.262450367E-1,4.429198205E-1,4.605938475E-1
3.091397360E-1,-1.603604406E-1,-1.834701896E0,-7.501002312E0,7.723786778E0
3.284822640E-1,6.479306698E0,-7.563632727E-2,-5.903658390E0,8.765860969E0
3.477996720E-1,2.169147730E0,1.528474092E-1,-6.751166344E0,7.092729461E0
3.671170800E-1,-2.717353404E-1,8.224323392E-2,-2.722292900E0,2.737057303E0
3.864598960E-1,-3.687257692E-2,-1.763457619E-2,3.784724951E0,3.784945643E0
4.057773040E-1,6.161557138E-2,-1.919344813E-1,9.412248611E0,9.414407005E0
4.251214000E-1,1.864939779E-1,-1.337661743E-1,9.186447144E0,9.189313604E0
4.444388720E-1,1.205398515E-1,5.031949654E-2,4.213335991E0,4.215360255E0
4.637563440E-1,-3.370109200E-1,-3.200636059E-2,-1.259133935E0,1.303847780E0
4.830992240E-1,-9.879935384E-1,-7.391194254E-2,-6.556084156E0,6.630522880E0
5.024166960E-1,-1.519773364E0,4.069966078E-2,-9.443360329E0,9.564958015E0
5.217235760E-1,-1.258907557E0,7.975395024E-2,-6.992062569E0,7.104938275E0
5.410659760E-1,-5.740498900E-1,-5.123265088E-2,-3.611437082E-1,6.801344270E-1
5.603830320E-1,-1.373903900E-1,-1.478374898E-1,6.202945232E0,6.206227646E0
5.797253680E-1,5.640818179E-2,-5.652744323E-2,8.590802193E0,8.591173351E0
5.990424240E-1,1.326092631E-1,-4.460065439E-2,7.632153988E0,7.633436247E0
6.183848240E-1,3.149965405E-2,-1.228920296E-1,3.830426693E0,3.832527016E0
6.376969520E-1,-4.953753054E-1,-3.893986344E-2,-2.860548973E0,2.903386546E0
6.570137520E-1,-3.640734851E-1,-4.702047631E-2,-2.873407841E0,2.896762511E0
6.763306160E-1,-1.251206517E0,7.909263670E-2,-8.204846382E0,8.300076960E0
6.956728240E-1,-9.283027649E-1,7.366002072E-3,-4.873813152E0,4.961436780E0
7.149896880E-1,-3.316754103E-1,-3.803564608E-2,1.070807457E0,1.121643392E0
7.342963120E-1,-3.697690740E-2,-8.555833250E-2,6.586957455E0,6.587616870E0
7.536382000E-1,2.863232605E-2,-1.134541407E-1,8.819691658E0,8.820467822E0
7.729546800E-1,-2.916686423E-2,-7.506361604E-2,6.794833183E0,6.795310386E0
7.922712240E-1,-2.852520943E-1,-5.077711120E-2,1.716194630E0,1.740480129E0
8.116130480E-1,-8.242756128E-1,2.330097184E-2,-4.201388359E0,4.281546142E0
8.309295920E-1,-1.367139339E0,2.879068628E-2,-8.161057472E0,8.274826762E0
8.502460720E-1,-1.358706355E0,1.057967078E-2,-7.886931419E0,8.003117024E0
8.695879600E-1,-7.781875730E-1,-2.369337343E-2,-3.528275251E0,3.613151467E0
8.889044400E-1,-2.164963186E-1,-7.415607572E-2,2.759553671E0,2.769026226E0
9.082463920E-1,-3.689523041E-2,-7.087061554E-2,7.370809555E0,7.371242595E0
9.275594800E-1,-1.358044427E-2,-6.602442265E-2,8.147286415E0,8.147565255E0
9.468759600E-1,-1.267020106E-1,-9.030829370E-2,5.568354130E0,5.570527507E0
9.662177200E-1,-4.358444810E-1,-7.631767541E-2,3.948953152E-1,5.930658556E-1
9.855341360E-1,-9.632613063E-1,1.838160306E-2,-5.393450737E0,5.478824790E0
1.004850552E0,-1.426815629E0,3.807678819E-2,-8.324004173E0,8.445489812E0
1.024195064E0,-1.334312558E0,1.692922786E-2,-6.765815258E0,6.896153472E0
1.043511480E0,-7.744129896E-1,-1.233890653E-2,-1.846896291E0,2.002721557E0
1.062827960E0,-2.822885215E-1,-6.028933823E-2,4.019034863E0,4.029387403E0
1.082169912E0,-6.591619551E-2,-9.071942419E-2,7.667513847E0,7.668333819E0
1.101486264E0,3.436781093E-2,-9.141620994E-2,7.662414074E0,7.663036442E0
1.120802744E0,-4.607103020E-2,-7.852637023E-2,4.250483513E0,4.251458458E0
1.140140600E0,-4.338490069E-1,-1.948096044E-2,-1.242126822E0,1.315858469E0
1.159457080E0,-1.028304219E0,2.721790597E-2,-6.223103046E0,6.307548011E0
1.178773432E0,-1.430556655E0,2.599850111E-2,-7.952200890E0,8.079892775E0
1.198115256E0,-1.203717589E0,4.478048068E-3,-5.584566116E0,5.712821964E0
1.217431608E0,-6.678888202E-1,-3.764122725E-2,-3.770111203E-1,7.678735071E-1
1.236774774E0,-8.219056726E-1,-3.376524523E-2,-3.521845639E-1,8.948200900E-1
1.256090998E0,-3.246161342E-1,-7.695411891E-2,5.101677895E0,5.112574196E0
1.275432950E0,-1.014420316E-1,-6.641400605E-2,6.850115776E0,6.851188762E0
1.294749174E0,-2.841954827E-1,-6.471545249E-2,2.938715458E0,2.953134556E0
1.314065654E0,-7.179033756E-1,-1.733343862E-2,-2.541807413E0,2.641300935E0
1.333419382E0,-1.231594920E0,1.370518096E-2,-6.845861435E0,6.955776928E0
1.352735990E0,-1.367061377E0,-1.877367496E-3,-7.476321697E0,7.600279367E0
1.372052598E0,-9.464918375E-1,1.647559367E-2,-4.255857944E0,4.359867554E0
1.391369206E0,-4.082738459E-1,-5.458047241E-2,1.070078492E0,1.146618742E0
1.410685942E0,-1.497494131E-1,-8.968874812E-2,5.828794479E0,5.831407552E0
1.430011510E0,-1.178768128E-1,-7.928991318E-2,7.580137253E0,7.581468367E0
1.449353718E0,-1.621611267E-1,-7.959570736E-2,5.912736893E0,5.915495691E0
1.468670454E0,-3.899855316E-1,-3.963651136E-2,1.536482334E0,1.585697869E0
1.487987190E0,-8.681843281E-1,5.957304500E-3,-3.734812498E0,3.834397464E0
1.507304054E0,-1.322973967E0,-5.649598897E-4,-7.119950771E0,7.241820173E0
1.526654198E0,-1.288402557E0,-1.428779960E-2,-6.723046303E0,6.845402609E0
1.545982906E0,-9.243950248E-1,-4.294605460E-3,-2.893426180E0,3.037505500E0
1.565324613E0,-4.630907774E-1,-6.404484808E-2,2.396059752E0,2.441240902E0
1.584641759E0,-1.969143599E-1,-9.223330021E-2,6.389557362E0,6.393256254E0
1.603953544E0,-1.044509932E-1,-9.427636862E-2,7.227056980E0,7.228426567E0
1.623304697E0,-1.088281050E-1,-8.034438640E-2,4.818603516E0,4.820501905E0
1.642627858E0,-3.901982605E-1,-5.938296020E-2,1.446895897E-1,4.203761362E-1
1.661936586E0,-8.899041414E-1,2.802458964E-2,-4.676306248E0,4.760310377E0
1.681284780E0,-1.359591961E0,1.257126033E-2,-7.105429649E0,7.234347161E0
1.700595648E0,-1.297365189E0,-1.090743206E-2,-5.807404518E0,5.950564901E0
1.719909575E0,-8.274538517E-1,-2.895798720E-2,-1.547435760E0,1.755014494E0
1.739261311E0,-3.748309910E-1,-6.450694054E-2,3.507467985E0,3.528029349E0
1.758578659E0,-4.596616030E-1,-6.526369601E-2,3.522506714E0,3.552970826E0
1.777894397E0,-7.703229785E-2,-8.097726852E-2,6.672477245E0,6.673413211E0
1.797237025E0,-1.799057573E-1,-8.196436614E-2,3.676053762E0,3.681365983E0
1.816557600E0,-6.572423577E-1,-1.712318510E-2,-1.112126589E0,1.291931217E0
1.835898742E0,-4.019468725E-1,-2.527093515E-2,-1.142737508E0,1.211630686E0
1.855210668E0,-1.351100802E0,-8.856740315E-4,-6.846150875E0,6.978198619E0
1.874549689E0,-1.080834866E0,-2.533572540E-2,-4.776653767E0,4.897475586E0
1.893867264E0,-5.891812444E-1,-1.797752269E-2,-3.029729128E-1,6.627596215E-1
1.913182877E0,-2.676562667E-1,-5.226874352E-2,4.356607437E0,4.365134621E0
1.932520569E0,-1.880603880E-1,-9.396885335E-2,6.753172874E0,6.756444385E0
1.951837561E0,-2.105968446E-1,-1.089610755E-1,5.995821476E0,6.000508205E0
1.971154425E0,-3.858712316E-1,-6.846468151E-2,2.486003399E0,2.516703582E0
1.990495650E0,-7.550019622E-1,2.078393660E-2,-2.252849817E0,2.376087590E0
2.009815015E0,-1.182041168E0,2.791432291E-2,-5.845643997E0,5.964021653E0
2.029134184E0,-1.297126174E0,-2.748537436E-2,-6.407587051E0,6.537619106E0
2.048471901E0,-9.455979466E-1,-3.738556057E-2,-3.638367653E0,3.759424469E0
2.067788466E0,-4.995614290E-1,-2.979988046E-2,9.196810722E-1,1.047025754E0
2.087110538E0,-2.710462809E-1,-6.626917422E-2,5.017884254E0,5.025636286E0
2.106454050E0,-2.101971954E-1,-8.140202612E-2,6.602420807E0,6.606267453E0
2.125769232E0,-1.714127809E-1,-8.195548505E-2,5.139719009E0,5.143229583E0
2.145089642E0,-3.659590483E-1,-4.554093257E-2,1.286183476E0,1.338008945E0
2.164418359E0,-8.087872267E-1,2.261710120E-3,-3.251138926E0,3.350230769E0
2.183741608E0,-1.247923851E0,5.830930604E-5,-6.107415199E0,6.233605246E0
2.203059022E0,-1.299404263E0,1.762430998E-3,-5.769364834E0,5.913884099E0
2.222373500E0,-9.324774146E-1,7.866190746E-3,-2.497324467E0,2.665746705E0
2.241718035E0,-5.390325785E-1,-4.030509666E-2,2.050099134E0,2.120162042E0
2.261040412E0,-2.929875255E-1,-9.482866526E-2,5.562527657E0,5.571045512E0
2.280362691E0,-1.919023395E-1,-9.631074965E-2,6.305779457E0,6.309433955E0
2.299696722E0,-2.262793928E-1,-6.988099217E-2,4.189155579E0,4.195844394E0
2.319012229E0,-4.803198874E-1,-2.048321441E-2,1.066317558E-1,4.924399330E-1
2.338353788E0,-9.313843250E-1,9.032812086E-4,-4.016809464E0,4.123376752E0
2.357670180E0,-1.311720371E0,-1.375636552E-2,-6.105092525E0,6.244433867E0
2.376990601E0,-1.131781220E0,-2.641954459E-2,-5.010053635E0,5.136366823E0
2.396334848E0,-7.189879417E-1,-2.141444571E-2,-1.416166902E0,1.588373675E0
2.415651323E0,-3.915165961E-1,-5.567581952E-2,2.954257965E0,2.980608187E0
2.434966516E0,-2.533752322E-1,-6.820777804E-2,5.830297947E0,5.836199573E0
2.454277052E0,-2.456904054E-1,-6.960806996E-2,5.885842323E0,5.891379203E0
2.473627029E0,-3.802984655E-1,-7.024092227E-2,3.229226112E0,3.252301031E0
2.492944011E0,-6.989321709E-1,-4.705907777E-2,-9.485511184E-1,1.179181903E0
2.512266137E0,-1.079794645E0,1.528068818E-2,-4.611822128E0,4.736569784E0
2.531607151E0,-1.274231553E0,-2.603265748E-4,-5.886820793E0,6.023149107E0
2.550918456E0,-1.054281592E0,1.491621952E-3,-4.145476341E0,4.277439187E0
2.570262513E0,-6.604011655E-1,-4.723178595E-2,-3.025273383E-1,7.279308562E-1
2.589576798E0,-3.704143763E-1,-6.906337291E-2,3.751805544E0,3.770679169E0
2.608894046E0,-2.725202143E-1,-8.281048387E-2,5.872145653E0,5.879049193E0
2.628245196E0,-2.894286513E-1,-7.042445242E-2,5.266255856E0,5.274673382E0
2.647556178E0,-4.540061355E-1,-4.406011850E-2,2.197899580E0,2.244732819E0
2.666871137E0,-6.958816648E-1,-1.072346978E-2,-1.893896699E0,2.017724211E0
2.686217350E0,-1.124381423E0,-1.306584384E-2,-4.995758533E0,5.120742878E0
2.705529468E0,-1.275836706E0,-1.275994442E-2,-5.511669159E0,5.657421589E0
2.724851875E0,-1.050404310E0,5.069753155E-3,-3.186216831E0,3.354899792E0
2.744162954E0,-6.929211020E-1,-4.366230965E-2,7.573882341E-1,1.027464349E0
2.763497677E0,-4.125297964E-1,-6.932739168E-2,4.367394924E0,4.387382539E0
2.782817909E0,-2.783688605E-1,-8.426014334E-2,5.786655903E0,5.793960263E0
2.802163877E0,-2.425479144E-1,-7.142081112E-2,4.509299278E0,4.516382447E0
2.821480609E0,-4.322757125E-1,-6.123051792E-2,1.165213943E0,1.244321100E0
2.840794581E0,-8.252915740E-1,-1.201995835E-2,-2.755909920E0,2.876854210E0
2.860138766E0,-1.166550398E0,1.333161909E-2,-5.202831268E0,5.332023140E0
2.879459417E0,-1.228345037E0,1.302353805E-3,-4.961480141E0,5.111273658E0
2.898772733E0,-9.618016481E-1,-2.125258557E-2,-2.210997820E0,2.411229032E0
2.918116180E0,-6.148689389E-1,-7.081727684E-2,1.717856407E0,1.825954417E0
2.937429116E0,-3.785372078E-1,-7.037121803E-2,4.777209759E0,4.792700242E0
2.956771883E0,-2.582904994E-1,-7.160206139E-2,5.508402824E0,5.514919992E0
2.976088591E0,-3.921042681E-1,-5.838335305E-2,3.739530325E0,3.760484201E0
2.995404580E0,-1.797613204E-1,-6.084087119E-2,3.707026482E0,3.711881070E0
3.014730390E0,-1.003201246E0,-2.518494986E-2,-3.404843330E0,3.549648592E0
3.034043737E0,-1.193251967E0,-1.392802689E-2,-5.228681087E0,5.363128766E0
3.053385945E0,-1.096562624E0,6.560478942E-4,-4.337534428E0,4.473997645E0
3.072702809E0,-7.800801992E-1,-9.256495163E-3,-1.277301669E0,1.496699821E0
3.092019673E0,-4.878005087E-1,-7.229871303E-2,2.500675678E0,2.548834104E0
3.111371958E0,-3.412151039E-1,-8.427045494E-2,5.018270493E0,5.030563387E0
3.130681208E0,-3.225019872E-1,-7.179982215E-2,5.115092278E0,5.125751823E0
3.149997944E0,-4.416324198E-1,-7.290528715E-2,2.858251333E0,2.893087461E0
3.169349262E0,-7.411057949E-1,-2.159551345E-2,-7.149859667E-1,1.030004416E0
3.188652188E0,-1.068760633E0,-1.280228328E-2,-3.898645639E0,4.042505536E0
3.207968796E0,-1.216562390E0,-1.426351629E-2,-5.077812672E0,5.221533206E0
3.227292460E0,-1.032733083E0,-1.273816172E-2,-3.596852541E0,3.742198295E0
3.246623209E0,-7.012611032E-1,-4.943655431E-2,-3.025098741E-1,7.653256376E-1
3.265939945E0,-5.289551020E-1,-7.197739184E-2,3.212962389E0,3.257008068E0
3.285289774E0,-3.513953388E-1,-7.257742435E-2,5.101763725E0,5.114365970E0
3.304611085E0,-2.835032046E-1,-5.994796380E-2,4.609073639E0,4.618173625E0
3.323923735E0,-4.410330653E-1,-7.581136376E-2,1.950364828E0,2.001044850E0
3.343255656E0,-7.577527165E-1,-5.285561085E-2,-1.576482892E0,1.749937486E0
3.362570563E0,-1.072027683E0,-9.854779346E-4,-4.258528233E0,4.391390103E0
3.381887171E0,-1.221144915E0,1.342425309E-2,-4.744367599E0,4.899020211E0
3.401224549E0,-1.060950875E0,-1.037467271E-2,-2.776210785E0,2.972048236E0
3.420539517E0,-7.245069146E-1,-6.038992479E-2,6.040462852E-1,9.452137996E-1
3.439860101E0,-4.773145616E-1,-7.250061631E-2,3.719687462E0,3.750887941E0
3.459121330E0,-3.443838954E-1,-7.322020084E-2,5.016498566E0,5.028838765E0
3.478437810E0,-3.313861787E-1,-7.409934700E-2,3.974925995E0,3.989403988E0
3.497754418E0,-5.278375149E-1,-6.326886266E-2,1.099014163E0,1.220838860E0
3.517096370E0,-4.285703301E-1,-6.559195369E-2,1.085945010E0,1.169295257E0
3.536407466E0,-1.107764006E0,1.258651726E-2,-4.434653282E0,4.570935270E0
3.555723946E0,-1.128524423E0,-1.407972351E-2,-4.323371887E0,4.468255821E0
3.575065770E0,-1.262524605E0,-1.142911799E-2,-4.307315350E0,4.488548153E0
3.594382378E0,-5.871242285E-1,-6.184358150E-2,1.374060631E0,1.495520680E0
3.613698858E0,-4.235215187E-1,-7.323276997E-2,4.082990170E0,4.105550175E0
3.633039906E0,-3.743245006E-1,-5.996491760E-2,4.826278210E0,4.841144078E0
3.652356386E0,-4.581396282E-1,-7.470673323E-2,3.312546730E0,3.344912384E0
3.671672994E0,-6.672116518E-1,-7.695195824E-2,2.470691502E-1,7.156368892E-1
3.691014818E0,-9.712662697E-1,-2.648983896E-2,-2.855667353E0,3.016437619E0
3.710331426E0,-1.147412300E0,-1.364306663E-3,-4.446887970E0,4.592534101E0
3.729647906E0,-1.080723524E0,-5.142558948E-4,-3.747423649E0,3.900147126E0
3.748988832E0,-8.038712144E-1,-3.847897053E-2,-1.139733076E0,1.395235122E0
3.768305312E0,-5.488873720E-1,-6.202890724E-2,2.088898659E0,2.160699549E0
3.787621792E0,-4.115479887E-1,-8.774067461E-2,4.330714226E0,4.351109730E0
3.806938400E0,-4.083915651E-1,-7.470411807E-2,4.495924950E0,4.515053214E0
3.826280224E0,-5.210638046E-1,-6.231986359E-2,2.528883696E0,2.582758990E0
3.845599073E0,-6.591426134E-1,-2.622438036E-2,-5.741154552E-1,8.745085813E-1
3.864915553E0,-9.832443595E-1,-1.527849399E-2,-3.327006817E0,3.469290599E0
3.884232161E0,-1.159866929E0,-1.492162235E-2,-4.334965706E0,4.487476086E0
3.903548641E0,-1.094148397E0,-2.606663108E-2,-3.121229410E0,3.307553963E0
3.922890593E0,-8.306373358E-1,-4.997993261E-2,-3.034925163E-1,8.857562219E-1
3.942211734E0,-5.633401871E-1,-6.118703261E-2,2.703448534E0,2.762196589E0
3.961528214E0,-4.083510637E-1,-7.461194694E-2,4.414195538E0,4.433671140E0
3.980870166E0,-3.830647767E-1,-7.578947395E-2,4.033313274E0,4.052172089E0
4.000186646E0,-4.866186678E-1,-7.808390260E-2,1.746751308E0,1.814947646E0
4.019542039E0,-7.619552016E-1,-4.073007405E-2,-1.286580801E0,1.495835828E0
4.038862464E0,-1.049090505E0,-1.769321854E-3,-3.640532494E0,3.788676663E0
4.058204416E0,-1.149251461E0,-1.466476545E-2,-4.059040070E0,4.218625400E0
4.077521024E0,-1.046489477E0,-2.567103878E-2,-2.420378447E0,2.637049687E0
4.096863104E0,-1.138079882E0,-2.393355593E-2,-2.407782078E0,2.663308688E0
4.116200686E0,-5.384014845E-1,-6.162424013E-2,3.169164896E0,3.215164046E0
4.135521891E0,-4.289577305E-1,-7.526316494E-2,4.372220993E0,4.393857723E0
4.154876704E0,-3.796066046E-1,-7.621602714E-2,4.364051819E0,4.381193711E0
4.174193440E0,-6.321088672E-1,-6.455419958E-2,1.002916098E0,1.187252948E0
4.193509089E0,-8.924627304E-1,-2.712342143E-2,-1.922294497E0,2.119538049E0
4.212848794E0,-1.093079090E0,-1.595559716E-2,-3.829277277E0,3.982265805E0
4.232165402E0,-1.112494826E0,-2.919872105E-2,-3.692401171E0,3.856465183E0
4.251488787E0,-8.931173682E-1,-2.697254904E-2,-1.688909888E0,1.910707398E0
4.270809112E0,-6.453928351E-1,-5.131906644E-2,1.168319702E0,1.335715720E0
4.290143837E0,-4.736475945E-1,-7.633512467E-2,3.519378185E0,3.551927914E0
4.309460573E0,-4.459347129E-1,-7.600718737E-2,4.220680714E0,4.244853419E0
4.328777309E0,-5.294075012E-1,-7.712552696E-2,2.886483669E0,2.935644499E0
4.348119389E0,-7.097931504E-1,-3.875575587E-2,2.337139994E-1,7.482850784E-1
4.367436253E0,-9.440494180E-1,-1.460990496E-2,-2.430052280E0,2.607028354E0
4.386739039E0,-1.120316744E0,-1.614954695E-2,-3.815655708E0,3.976757335E0
4.406081119E0,-1.074866414E0,-2.904606983E-2,-3.198455572E0,3.374359129E0
4.425397983E0,-9.205403328E-1,-2.523780428E-2,-9.503393173E-1,1.323320169E0
4.444714719E0,-6.650449634E-1,-6.370668858E-2,1.824008465E0,1.942511319E0
4.464056799E0,-4.917365015E-1,-7.666575164E-2,3.742527246E0,3.775472502E0
4.483373663E0,-4.206346273E-1,-7.740299404E-2,3.898785353E0,3.922174389E0
4.502690271E0,-5.008478761E-1,-7.926695794E-2,2.202241659E0,2.259867291E0
4.522007007E0,-7.195958495E-1,-4.133369774E-2,-4.762333333E-1,8.639009486E-1
4.541356952E0,-9.663636684E-1,-1.637530327E-2,-2.832270861E0,2.992638488E0
4.560673816E0,-1.130395651E0,-2.972712927E-2,-3.703904867E0,3.872672113E0
4.579990808E0,-1.061628819E0,-2.758210711E-2,-2.641670704E0,2.847146050E0
4.599333016E0,-8.271848559E-1,-3.865151107E-2,-2.086388767E-1,8.539665720E-1
4.618649880E0,-9.028579593E-1,-3.755677119E-2,-1.972206980E-1,9.249102710E-1
4.637976262E0,-4.845284224E-1,-7.717645168E-2,3.863918781E0,3.894944460E0
4.657318726E0,-4.548946619E-1,-7.824824750E-2,3.498392582E0,3.528711181E0
4.676635846E0,-5.402396321E-1,-6.683262438E-2,1.501481175E0,1.597113390E0
4.695967698E0,-4.600999951E-1,-6.836479157E-2,1.490400553E0,1.561300598E0
4.715307384E0,-7.193926573E-1,-2.760826843E-3,-1.140291810E0,1.348257701E0
4.734608073E0,-1.115189075E0,-4.387896135E-2,-3.458922386E0,3.634517315E0
4.753930485E0,-9.568334818E-1,-5.583050475E-2,-2.018101692E0,2.234140058E0
4.773273077E0,-7.131493688E-1,-3.975689039E-2,4.404499531E-1,8.391417006E-1
4.792590325E0,-5.267204046E-1,-6.490445882E-2,2.763485670E0,2.813982946E0
4.811907445E0,-4.928452671E-1,-7.778089494E-2,3.808565617E0,3.841109004E0
4.831224693E0,-5.406036377E-1,-7.857505977E-2,3.038102150E0,3.086825393E0
4.850573112E0,-6.803520918E-1,-5.338719860E-2,8.249595761E-1,1.070648151E0
4.869890488E0,-9.103356600E-1,-2.878184430E-2,-1.674807191E0,1.906441327E0
4.889207736E0,-1.073720217E0,-1.705192588E-2,-3.266680479E0,3.438657765E0
4.908565414E0,-1.080637097E0,-3.040830418E-2,-3.143266916E0,3.323977754E0
4.927887456E0,-8.869453669E-1,-2.854009904E-2,-1.400114894E0,1.657651452E0
4.947375388E0,-6.564515829E-1,-5.334300175E-2,1.086235166E0,1.270307440E0
4.966554483E0,-5.190134645E-1,-7.891190797E-2,3.079871893E0,3.124293991E0
4.985866067E0,-4.975009859E-1,-9.218914807E-2,3.657273769E0,3.692107460E0
5.005212622E0,-5.041679740E-1,-8.075776696E-2,2.479204893E0,2.531237655E0
5.024524775E0,-6.564724445E-1,-1.536438521E-2,1.563846022E-1,6.750172432E-1
5.043844238E0,-9.104975462E-1,-3.103732690E-2,-2.146472454E0,2.331804686E0
5.063192602E0,-1.104457378E0,-4.469628260E-2,-3.293497086E0,3.474038991E0
5.082501541E0,-1.100492001E0,-4.332778230E-2,-2.711775064E0,2.926889807E0
5.101819045E0,-8.859114647E-1,-2.782091126E-2,-7.451229692E-1,1.157938412E0
5.121136549E0,-6.635453701E-1,-5.298219249E-2,1.658200860E0,1.786821106E0
5.140488488E0,-5.322739482E-1,-7.904718816E-2,3.315771580E0,3.359152450E0
5.159806834E0,-4.913798571E-1,-9.367235005E-2,3.404530764E0,3.441083898E0
5.179126685E0,-5.475707650E-1,-5.503682792E-2,1.874240041E0,1.953365948E0
5.198431630E0,-7.340905070E-1,-3.009996191E-2,-4.743171334E-1,8.745122202E-1
5.217774505E0,-9.701408148E-1,-3.157189861E-2,-2.474392653E0,2.657967077E0
5.237092137E0,-1.109585404E0,-4.520459846E-2,-3.182254076E0,3.370454603E0
5.256419652E0,-9.846678972E-1,-4.452879727E-2,-2.237663269E0,2.445136108E0
5.275764850E0,-7.431002855E-1,-4.234481230E-2,-1.097450554E-1,7.523530386E-1
5.295038438E0,-6.121602058E-1,-6.736869365E-2,2.131157160E0,2.218357387E0
5.314356198E0,-5.371815562E-1,-7.986866683E-2,3.382460833E0,3.425782292E0
5.333699174E0,-5.428305864E-1,-8.032099903E-2,3.038473129E0,3.087626186E0
5.353012393E0,-6.539052129E-1,-4.115295410E-2,1.251333714E0,1.412487754E0
5.372355369E0,-8.560878038E-1,-2.993642539E-2,-1.042829394E0,1.349546466E0
5.391672873E0,-1.040579915E0,-3.178190440E-2,-2.717595100E0,2.910178651E0
5.410990377E0,-1.066574812E0,-4.558014125E-2,-2.978208065E0,3.163760841E0
5.430333481E0,-9.278473854E-1,-1.701454818E-2,-1.674284339E0,1.914267043E0
5.449648620E0,-7.336606383E-1,-4.225865379E-2,5.231862664E-1,9.020906803E-1
5.468966124E0,-5.816518664E-1,-8.110859990E-2,2.516263723E0,2.583888663E0
5.488308972E0,-5.221651196E-1,-8.032768220E-2,3.354997396E0,3.396338687E0
5.507626604E0,-5.718738437E-1,-6.784222275E-2,2.598592758E0,2.661639830E0
5.526944108E0,-7.268034220E-1,-2.901945263E-2,6.467512250E-1,9.733306169E-1
5.546281134E0,-9.088907242E-1,-3.097207472E-2,-1.523373246E0,1.774178025E0
5.565598510E0,-1.041182160E0,-3.267524764E-2,-2.841772795E0,3.026681447E0
5.584916014E0,-1.066427588E0,-3.200332075E-2,-2.685388803E0,2.889568314E0
5.604258734E0,-9.267751575E-1,-4.367510602E-2,-1.089473248E0,1.431003726E0
5.623600056E0,-7.393114567E-1,-6.889550388E-2,1.094629049E0,1.322702074E0
5.642913659E0,-5.923073292E-1,-8.157431334E-2,2.808321953E0,2.871263578E0
5.662256251E0,-5.337255597E-1,-8.207555115E-2,3.200478315E0,3.245714223E0
5.681573627E0,-5.586516261E-1,-5.625786632E-2,2.082201481E0,2.156575896E0
5.700891003E0,-7.157823443E-1,-5.829392746E-2,4.809186235E-2,7.197606364E-1
5.720233595E0,-9.194802642E-1,-4.634863138E-2,-1.925726295E0,2.134482118E0
5.739550971E0,-1.053751707E0,-1.957594417E-2,-2.853842020E0,3.042234401E0
5.758868347E0,-1.044461608E0,-3.196731582E-2,-2.299807072E0,2.526070966E0
5.778210939E0,-8.958401680E-1,-4.348706082E-2,-4.985118806E-1,1.026126126E0
5.797528315E0,-7.094947100E-1,-8.266108483E-2,1.602403522E0,1.754398086E0
5.816845563E0,-7.441178560E-1,-8.224102855E-2,1.607870221E0,1.773618228E0
5.836162939E0,-5.560846329E-1,-6.891945750E-2,2.970332146E0,3.022722790E0
5.855515743E0,-6.616027355E-1,-7.008781284E-2,1.540572405E0,1.678092314E0
5.874839276E0,-8.371896148E-1,-4.456411675E-2,-4.931606650E-1,9.726663627E-1
5.894155963E0,-9.929805994E-1,-5.998175591E-3,-2.222967148E0,2.434672337E0
5.913498810E0,-1.043214917E0,-2.048312314E-2,-2.758109570E0,2.948878655E0
5.932812623E0,-9.623183012E-1,-5.992417037E-2,-1.852162004E0,2.088097581E0
5.952131917E0,-7.637951970E-1,-7.133269310E-2,7.024654746E-2,7.703285231E-1
5.971466077E0,-6.081004143E-1,-5.637945980E-2,1.994349957E0,2.085760414E0
5.990789221E0,-5.464347005E-1,-4.234214127E-2,2.998214722E0,3.047896858E0
6.010101485E0,-5.901508927E-1,-6.969972700E-2,2.612962723E0,2.679684742E0
6.029417262E0,-7.111589313E-1,-8.446133137E-2,1.004580498E0,1.233719060E0
6.048757979E0,-8.627855182E-1,-3.215340525E-2,-1.001046538E0,1.321940567E0
6.068075227E0,-9.960212708E-1,6.862988696E-3,-2.428606749E0,2.624925944E0
6.087391128E0,-1.043251276E0,-2.044287510E-2,-2.565721989E0,2.769787078E0
6.106739087E0,-9.398224354E-1,-7.327202708E-2,-1.316766858E0,1.619416549E0
6.126049658E0,-7.445337176E-1,-5.797775835E-2,6.337426901E-1,9.794496794E-1
6.145365961E0,-6.148963571E-1,-4.299684986E-2,2.328703642E0,2.408901598E0
6.164717093E0,-5.330822468E-1,-5.647954717E-2,2.955223799E0,3.003450403E0
6.184026498E0,-5.782116652E-1,-9.830050170E-2,2.194106340E0,2.271143842E0
6.203343319E0,-6.940854192E-1,-7.329721004E-2,4.339665174E-1,8.218600783E-1
6.222680085E0,-8.697064519E-1,-2.091647312E-2,-1.431321144E0,1.674964784E0
6.241998436E0,-1.002771497E0,-7.890675217E-3,-2.511183500E0,2.704007306E0
6.261314619E0,-1.040382028E0,-4.749954119E-2,-2.273084164E0,2.500312497E0
6.280662292E0,-9.296274781E-1,-5.947591737E-2,-7.874804139E-1,1.219782782E0
6.299966072E0,-7.532173991E-1,-5.812517554E-2,1.108318329E0,1.341299558E0
6.319280313E0,-6.064721942E-1,-5.723138899E-2,2.561083317E0,2.632533325E0
6.338628288E0,-5.569457412E-1,-8.465351164E-2,2.829959869E0,2.885485685E0
6.357952361E0,-5.889907479E-1,-7.267424464E-2,1.767396331E0,1.864371593E0
6.377270004E0,-8.033888340E-1,-4.651703686E-2,-7.973522693E-2,8.086749407E-1
6.396526163E0,-7.001308799E-1,-4.837787896E-2,-9.378620237E-2,7.080392079E-1
6.415843155E0,-1.061145425E0,-3.556892648E-2,-2.497069359E0,2.713420377E0
6.435160275E0,-9.885798693E-1,-4.856631160E-2,-1.906749725E0,2.148335020E0
6.454502611E0,-8.276194334E-1,-4.712449759E-2,-2.999967933E-1,8.815740019E-1
6.473819603E0,-6.517709494E-1,-5.909302831E-2,1.541169286E0,1.674365588E0
6.493161939E0,-5.973444581E-1,-8.523330837E-2,2.668599606E0,2.735965821E0
6.512479059E0,-6.045169234E-1,-8.523276448E-2,2.572236300E0,2.643691532E0
6.531795923E0,-6.768190861E-1,-5.934228003E-2,1.280002594E0,1.449141892E0
6.551131473E0,-8.254318833E-1,-3.403281420E-2,-5.473560691E-1,9.910069086E-1
6.570448337E0,-9.824752212E-1,-3.556261212E-2,-2.016496420E0,2.243385850E0
6.589790545E0,-1.041567206E0,-4.945944250E-2,-2.414376974E0,2.629928641E0
6.609107409E0,-9.459488988E-1,-4.859019443E-2,-1.522042990E0,1.792706108E0
6.628424401E0,-7.634930611E-1,-4.703578725E-2,1.947541833E-1,7.893435320E-1
6.647766609E0,-6.328098178E-1,-5.911688134E-2,1.871401191E0,1.976381919E0
6.667083473E0,-5.724417567E-1,-8.550169319E-2,2.682594061E0,2.744323414E0
6.686425809E0,-6.139237881E-1,-8.595672995E-2,2.242553234E0,2.326657685E0
6.705742673E0,-7.297911644E-1,-4.667732120E-2,7.717941403E-1,1.063221572E0
6.725059409E0,-8.436236382E-1,-4.908587039E-2,-9.781461358E-1,1.292625285E0
6.744401873E0,-1.005352378E0,-3.636936098E-2,-2.168616295E0,2.390596739E0
6.763718609E0,-1.051234722E0,-4.944671318E-2,-2.218946218E0,2.455862728E0
6.783060945E0,-9.373165965E-1,-4.792799056E-2,-1.049005389E0,1.407576570E0
6.802377681E0,-7.680727839E-1,-5.998225510E-2,6.685251594E-1,1.020029196E0
6.821720017E0,-6.288985014E-1,-7.281557471E-2,2.122324228E0,2.214740518E0
6.841036881E0,-5.703246593E-1,-7.280943543E-2,2.612011909E0,2.674542512E0
6.860353745E0,-5.948088765E-1,-7.400854677E-2,1.879263759E0,1.972538248E0
6.879696081E0,-7.240689993E-1,-6.209387258E-2,3.117865622E-1,7.907859540E-1
6.899013073E0,-8.864824772E-1,-4.990798607E-2,-1.333789825E0,1.602291262E0
6.918329809E0,-1.013671041E0,-3.673288971E-2,-2.222033739E0,2.442603574E0
6.937672145E0,-1.007781625E0,-3.616267070E-2,-1.956907392E0,2.201458172E0
6.956971611E0,-8.716306686E-1,-3.477463126E-2,-6.225730777E-1,1.071702633E0
6.976288347E0,-9.227117300E-1,-3.383197263E-2,-6.151335835E-1,1.109473237E0
6.995630427E0,-7.807388306E-1,-5.968551338E-2,1.085358977E0,1.338327162E0
7.014946907E0,-6.027000546E-1,-7.327711582E-2,2.463001728E0,2.536729076E0
7.034263643E0,-6.934748888E-1,-7.443632185E-2,1.486830831E0,1.642289288E0
7.053605723E0,-8.131735921E-1,-6.207922474E-2,-1.483615339E-1,8.289247648E-1
7.072922203E0,-9.290019870E-1,-3.624931350E-2,-1.617813706E0,1.865926015E0
7.092291628E0,-9.895492792E-1,-3.730744869E-2,-2.221627951E0,2.432330235E0
7.111581019E0,-9.576019645E-1,-5.030796304E-2,-1.631250262E0,1.892223515E0
7.130897755E0,-8.286938071E-1,-6.204075739E-2,-1.344735026E-1,8.418227868E-1
7.150225315E0,-6.798102856E-1,-7.444767654E-2,1.459583521E0,1.611852517E0
7.169541795E0,-6.009203196E-1,-6.039243564E-2,2.394625664E0,2.469612226E0
7.188858275E0,-6.316427588E-1,-6.039667502E-2,2.243208170E0,2.331223547E0
7.208200099E0,-7.234283686E-1,-7.496509701E-2,1.047297835E0,1.275069067E0
7.227516579E0,-8.712803125E-1,-6.328895688E-2,-5.602681637E-1,1.037803108E0
7.246845670E0,-9.596520066E-1,-5.116886273E-2,-1.823448896E0,2.061192884E0
7.266197400E0,-9.985269904E-1,-3.779544681E-2,-2.084263086E0,2.311414558E0
7.285539224E0,-9.396032691E-1,-3.637944162E-2,-1.241250634E0,1.557202910E0
7.304855448E0,-7.906398773E-1,-4.857098311E-2,2.844336629E-1,8.416490151E-1
7.324197272E0,-6.834506392E-1,-6.106982008E-2,1.752463460E0,1.882010223E0
7.343502608E0,-6.247504950E-1,-8.828018606E-2,2.421335220E0,2.502193202E0
7.362818576E0,-6.379364133E-1,-8.927569538E-2,1.963394165E0,2.066361455E0
7.382160144E0,-7.233094573E-1,-7.712018490E-2,6.015456319E-1,9.439180267E-1
7.401476112E0,-8.309957981E-1,-3.765106201E-2,-9.489501715E-1,1.261934248E0
7.420817936E0,-9.612247944E-1,-3.842397779E-2,-1.933972120E0,2.160017979E0
7.440133904E0,-9.801943898E-1,-5.147439986E-2,-1.888836503E0,2.128646046E0
7.459465097E0,-9.128952622E-1,-6.357648224E-2,-8.287454247E-1,1.234600627E0
7.478781065E0,-9.608162045E-1,-6.283767521E-2,-8.218404651E-1,1.265913940E0
7.498122633E0,-6.777621508E-1,-7.528174669E-2,1.971637487E0,2.086236625E0
7.517438345E0,-6.155145764E-1,-6.187115610E-2,2.338171721E0,2.418622176E0
7.536754569E0,-6.303540468E-1,-6.298077106E-2,1.646946430E0,1.764580785E0
7.556091851E0,-5.841937065E-1,-6.371961534E-2,1.640176177E0,1.742274481E0
7.575407819E0,-6.867818236E-1,-6.512477249E-2,1.977402717E-1,7.176431734E-1
7.594741187E0,-9.927926064E-1,-5.240733922E-2,-2.001509428E0,2.234820726E0
7.614082499E0,-9.727819562E-1,-2.498476580E-2,-1.699127555E0,1.958050924E0
7.633398467E0,-8.707005978E-1,-6.453649700E-2,-4.358536005E-1,9.758344385E-1
7.652721791E0,-7.041485906E-1,-6.298086792E-2,1.048503280E0,1.264575405E0
7.672046829E0,-6.188780665E-1,-6.222045049E-2,2.148016214E0,2.236259176E0
7.691385675E0,-6.378159523E-1,-8.959491551E-2,2.244194984E0,2.334790690E0
7.710703732E0,-7.174330950E-1,-9.028328955E-2,1.295669675E0,1.483786111E0
7.730011228E0,-8.178508878E-1,-7.790576667E-2,-1.885400563E-1,8.429096843E-1
7.749329486E0,-9.296683669E-1,-1.163892820E-2,-1.534170389E0,1.793905661E0
7.767681106E0,-9.696327448E-1,-1.248781011E-2,-2.014587641E0,2.235823555E0
7.786996818E0,-9.383938909E-1,-3.878044337E-2,-1.410419226E0,1.694511555E0
7.806394651E0,-8.267520070E-1,-9.180522710E-2,-1.020694803E-2,8.318961850E-1
7.825628498E0,-7.103798389E-1,-9.070386738E-2,1.419252753E0,1.589699684E0
7.844945610E0,-6.238462925E-1,-6.300880015E-2,2.216906071E0,2.303872139E0
7.864286922E0,-6.250075102E-1,-6.312622875E-2,2.010651350E0,2.106499029E0
7.883602378E0,-6.812756062E-1,-7.824825495E-2,8.776968718E-1,1.113827204E0
7.902918346E0,-8.165633678E-1,-6.599536538E-2,-5.776352286E-1,1.002393924E0
7.922234058E0,-9.369562864E-1,-2.613344975E-2,-1.673008323E0,1.917687902E0
7.941575370E0,-1.008784652E0,-3.942752257E-2,-1.847780824E0,2.105586611E0
7.960896826E0,-9.548395872E-1,-6.540793926E-2,-1.048422575E0,1.419572729E0
7.980212666E0,-8.360756040E-1,-7.781086862E-2,3.396166861E-1,9.057684253E-1
7.999528378E0,-6.793802977E-1,-5.011783540E-2,1.602029443E0,1.740852585E0
8.018869690E0,-6.183530092E-1,-5.010160059E-2,2.161569357E0,2.248833631E0
8.038185402E0,-6.222448945E-1,-7.799571007E-2,1.745176792E0,1.854430930E0
8.057509696E0,-7.297381163E-1,-9.284280986E-2,5.343783498E-1,9.092291935E-1
8.076850880E0,-8.457269073E-1,-6.709423661E-2,-8.652353883E-1,1.211770570E0
8.096166848E0,-9.661080837E-1,-2.679986693E-2,-1.754471898E0,2.003061333E0
8.115482816E0,-9.741834402E-1,-2.658777684E-2,-1.753407717E0,2.006035619E0
8.134798784E0,-1.017664552E0,-3.915681317E-2,-1.704823732E0,1.985849530E0
8.154151042E0,-7.527766824E-1,-9.240365773E-2,6.506351233E-1,9.992683489E-1
8.173467266E0,-6.729373336E-1,-9.132181108E-2,1.818956494E0,1.941593947E0
8.192783362E0,-6.384242177E-1,-6.388983130E-2,2.148962975E0,2.242701331E0
8.212124802E0,-6.671496034E-1,-6.480336189E-2,1.489082813E0,1.632989802E0
8.231440898E0,-7.787074447E-1,-5.241040140E-2,1.969945878E-1,8.049465834E-1
8.250767099E0,-9.029933214E-1,-6.706879288E-2,-1.108178735E0,1.431067877E0
8.270108667E0,-9.702888131E-1,-2.704968676E-2,-1.808399558E0,2.052437826E0
8.289424891E0,-9.598211050E-1,-4.060245678E-2,-1.547385097E0,1.821347235E0
8.308741115E0,-8.497498035E-1,-6.686109304E-2,-4.485686421E-1,9.632024507E-1
8.328057339E0,-7.426209450E-1,-9.266147017E-2,9.255850911E-1,1.190285586E0
8.347398907E0,-6.526594162E-1,-9.176972508E-2,1.915385485E0,2.025607946E0
8.366715259E0,-6.330893636E-1,-5.125097185E-2,2.025552034E0,2.122802357E0
8.386031483E0,-6.801344156E-1,-5.216725916E-2,1.241753459E0,1.416776588E0
8.405373179E0,-8.180680871E-1,-6.682241708E-2,-6.396176666E-2,8.232810809E-1
8.424689403E0,-9.159383774E-1,-8.197681606E-2,-1.261755943E0,1.561310786E0
8.444005371E0,-9.870898128E-1,-4.147811607E-2,-1.767110348E0,2.024535926E0
8.463347195E0,-9.476581216E-1,-2.713122033E-2,-1.323702574E0,1.628183197E0
8.482663419E0,-8.499141932E-1,-6.669165939E-2,-1.683115512E-1,8.689825611E-1
8.501979643E0,-7.434063554E-1,-7.927677780E-2,1.136214137E0,1.360117782E0
8.521421507E0,-6.616678834E-1,-6.550106406E-2,1.971285105E0,2.080398938E0
8.540637691E0,-6.326860785E-1,-6.616882980E-2,1.912308693E0,2.015339804E0
8.559971187E0,-6.976142526E-1,-8.059625328E-2,1.002678394E0,1.224142706E0
8.579287667E0,-8.101112843E-1,-8.172249794E-2,-3.296017647E-1,8.784054775E-1
8.598629747E0,-9.136667848E-1,-4.203817248E-2,-1.439114690E0,1.705170165E0
8.617946227E0,-9.631955624E-1,-1.480836235E-2,-1.737603545E0,1.986763967E0
8.637288051E0,-9.410433769E-1,-4.068441316E-2,-1.089283586E0,1.440054370E0
8.656623897E0,-7.171039581E-1,-7.592900842E-2,1.455034465E-1,7.356456715E-1
8.675940761E0,-5.892405510E-1,-7.488963753E-2,1.391808510E0,1.513256030E0
8.695283097E0,-6.031050086E-1,-7.482321560E-2,1.393787742E0,1.520519133E0
8.714600089E0,-5.454664826E-1,-4.792642593E-2,1.704665780E0,1.790451353E0
8.733917081E0,-6.444488168E-1,-6.246639788E-2,6.742288470E-1,9.347731631E-1
8.753651413E0,-7.422698736E-1,-7.723955810E-2,-6.300624609E-1,9.766827629E-1
8.772968661E0,-8.093619943E-1,-3.754945472E-2,-1.563105226E0,1.760617717E0
8.792285909E0,-8.187780380E-1,-2.431765012E-2,-1.658951521E0,1.850164580E0
8.811628629E0,-7.466259003E-1,-3.705937788E-2,-8.491510153E-1,1.131318293E0
8.830946005E0,-6.480715871E-1,-9.012575448E-2,4.413419962E-1,7.892415291E-1
8.850267536E0,-5.669606924E-1,-8.913531899E-2,1.581272840E0,1.682204901E0
8.869610384E0,-5.377057195E-1,-7.540483773E-2,2.020717144E0,2.092393631E0
8.888927888E0,-5.612846613E-1,-4.874111339E-2,1.498755336E0,1.601150750E0
8.908245264E0,-6.399656534E-1,-4.987442121E-2,3.176831305E-1,7.162164944E-1
8.927588112E0,-7.544218898E-1,-6.465012580E-2,-9.179793000E-1,1.189965555E0
8.946905616E0,-8.333677053E-1,-5.185890570E-2,-1.631590247E0,1.832833275E0
8.966252168E0,-8.299288750E-1,-3.816884011E-2,-1.480534554E0,1.697710624E0
8.985569800E0,-7.385147214E-1,-5.106034130E-2,-5.198343992E-1,9.045656166E-1
9.004887432E0,-6.687715054E-1,-6.283520907E-2,7.475312948E-1,1.004990859E0
9.024230408E0,-5.580928922E-1,-8.959965408E-2,1.720091701E0,1.810583119E0
9.043548040E0,-5.041702390E-1,-6.302252412E-2,1.908923626E0,1.975385754E0
9.062865544E0,-5.409342647E-1,-5.033507198E-2,1.233413696E0,1.347758452E0
9.082208520E0,-5.764621496E-1,-5.639871955E-2,4.385628924E-2,5.808724469E-1
9.101526152E0,-6.906097531E-1,-5.648729205E-2,-1.094023824E0,1.294998368E0
9.120869000E0,-7.505287528E-1,-2.967517078E-2,-1.639765382E0,1.803608752E0
9.140186632E0,-7.391339540E-1,-2.897565998E-2,-1.294281244E0,1.490745629E0
9.159496704E0,-6.619190574E-1,-2.777122706E-2,-2.503129542E-1,7.082122949E-1
9.178839680E0,-5.653817058E-1,-6.773370504E-2,9.568950534E-1,1.113504590E0
9.198157184E0,-4.850156903E-1,-6.749429554E-2,1.777944207E0,1.844147853E0
9.217474688E0,-4.751786888E-1,-5.419044197E-2,1.774798512E0,1.838108035E0
9.236817664E0,-4.463661611E-1,-5.458475277E-2,1.771014214E0,1.827214708E0
9.256128248E0,-4.416583180E-1,-5.571698397E-2,9.718605280E-1,1.068961804E0
9.275445624E0,-7.032916546E-1,-2.970522642E-2,-1.256007314E0,1.439811072E0
9.294788472E0,-7.513853908E-1,-4.370030388E-2,-1.571563125E0,1.742498315E0
9.314105720E0,-7.281973958E-1,-4.317178205E-2,-1.064013124E0,1.290061695E0
9.333423224E0,-5.328982472E-1,-5.153280869E-2,9.839504026E-3,5.354745448E-1
9.352759355E0,-4.160178900E-1,-5.015652999E-2,1.133795857E0,1.208751260E0
9.372076475E0,-3.593943119E-1,-4.962132871E-2,1.792334318E0,1.828685007E0
9.391393851E0,-3.895087838E-1,-4.998552799E-2,1.627555013E0,1.674261319E0
9.410736571E0,-4.432445765E-1,-6.441771239E-2,7.219291329E-1,8.495864107E-1
9.430053819E0,-5.480282903E-1,-3.821982816E-2,-4.576874077E-1,7.150339330E-1
9.449366737E0,-6.302787662E-1,-2.554384619E-2,-1.348825097E0,1.489037593E0
9.468683985E0,-6.753895283E-1,-3.943677619E-2,-1.499627352E0,1.645171258E0
9.488026577E0,-6.060280204E-1,-3.879126906E-2,-8.416500092E-1,1.037858113E0
9.507343825E0,-3.964114189E-1,-4.740731046E-2,2.473651022E-1,4.696583438E-1
9.526660817E0,-3.158553541E-1,-5.981582031E-2,1.288656592E0,1.328148467E0
9.545978065E0,-3.031177819E-1,-7.301434129E-2,1.768598437E0,1.795870796E0
9.565320657E0,-3.126381636E-1,-6.000116840E-2,1.422965527E0,1.458140477E0
9.584637905E0,-3.857785463E-1,-3.344531730E-2,4.519895315E-1,5.951791433E-1
9.603955025E0,-4.694611728E-1,-2.147995122E-2,-6.745015383E-1,8.220751220E-1
9.623272273E0,-5.664755702E-1,-3.531269729E-2,-1.412479162E0,1.522247990E0
9.642589521E0,-5.898820162E-1,-4.855011404E-2,-1.396593451E0,1.516835909E0
9.661905172E0,-5.413413644E-1,-3.417868912E-2,-6.141218543E-1,8.193682368E-1
9.681222164E0,-3.489815891E-1,-3.032291774E-3,4.889225662E-1,6.007017729E-1
9.700539284E0,-2.466693968E-1,-2.926315926E-2,1.418690085E0,1.440272086E0
9.719881876E0,-2.282473296E-1,-7.001119852E-2,1.717820525E0,1.734331505E0
9.739198996E0,-2.342967391E-1,-7.067598403E-2,1.222422004E0,1.246677830E0
9.758753847E0,-2.727521360E-1,-3.796835989E-2,1.777412146E-1,3.277609852E-1
9.778096311E0,-3.787747622E-1,2.659464255E-3,-9.033821821E-1,9.795798896E-1
9.797413559E0,-4.739634693E-1,-1.084213424E-2,-1.462994456E0,1.537891967E0
9.816730807E0,-4.667128026E-1,-2.381479181E-2,-1.242165923E0,1.327163956E0
9.836047927E0,-4.970090389E-1,-2.354269661E-2,-1.239449143E0,1.335592162E0
9.855370341E0,-4.144019186E-1,-2.278898284E-2,-3.341374397E-1,5.328190280E-1
9.874712933E0,-2.058591545E-1,-6.261105835E-2,1.536912084E0,1.551901056E0
9.894030181E0,-2.105406225E-1,-6.240217015E-2,1.632738352E0,1.647439198E0
9.913347301E0,-2.655797303E-1,-2.246737853E-2,9.476209283E-1,9.843895570E-1
9.932664421E0,-2.934020460E-1,8.276647888E-3,-1.237810627E-1,3.185514322E-1
9.952051200E0,-3.823453784E-1,-5.531480070E-3,-1.068872213E0,1.135212048E0
9.971337241E0,-4.286837876E-1,-4.666090757E-2,-1.465657949E0,1.527776245E0
9.990654617E0,-4.001052082E-1,-4.645965993E-2,-1.095765471E0,1.167452203E0
1.000997186E1,-2.524186373E-1,-2.757800277E-3,-1.001574323E-1,2.715774018E-1
1.002931484E1,-1.384491771E-1,1.042602584E-2,9.406086802E-1,9.508004870E-1
1.004863209E1,-1.122650951E-1,-3.083206899E-2,1.571105838E0,1.575413476E0
1.006794946E1,-1.219714805E-1,-8.409646153E-2,1.584342241E0,1.591254095E0
1.008729231E1,-1.696150601E-1,-5.707814172E-2,8.307522535E-1,8.498096785E-1
1.010660969E1,-2.332707494E-1,1.368397661E-2,-3.480953276E-1,4.192527291E-1
1.012592706E1,-3.262369335E-1,2.738101035E-2,-1.251557231E0,1.293667561E0
1.014526978E1,-3.769899607E-1,-2.638206445E-2,-1.456151009E0,1.504391307E0
1.016459913E1,-3.460753858E-1,-2.721010894E-2,-9.618123770E-1,1.022541741E0
1.018391664E1,-1.950760484E-1,-1.206186321E-2,6.186267734E-2,2.050052293E-1
1.020325961E1,-9.255595505E-2,-1.041446906E-2,1.155573964E0,1.159321462E0
1.022257724E1,-4.871535301E-2,-3.814134747E-2,1.701343060E0,1.702467666E0
1.024189475E1,-5.351565406E-2,-5.281898007E-2,1.371279955E0,1.373339901E0
1.026124816E1,-8.719419688E-2,-8.513087407E-3,4.797315300E-1,4.876655016E-1
1.028056592E1,-1.745170355E-1,1.814029180E-2,-5.737422109E-1,5.999711580E-1
1.029988381E1,-2.833580375E-1,-9.984306060E-3,-1.379273772E0,1.408114911E0
1.031922691E1,-3.030420244E-1,-2.236694656E-2,-1.405136108E0,1.437616859E0
1.033854454E1,-2.503933311E-1,-2.119872347E-2,-6.654617190E-1,7.113265815E-1
1.035786665E1,-1.302383989E-1,6.126328371E-3,3.720181882E-1,3.942043947E-1
1.037721001E1,-4.658457637E-2,-2.134456113E-2,1.219681144E0,1.220757062E0
1.039652777E1,-6.327903830E-3,-4.717874900E-2,1.601094961E0,1.601802407E0
1.041587126E1,1.041207649E-2,-4.694245011E-2,1.599698305E0,1.600420780E0
1.043518902E1,4.050835222E-2,-2.152220346E-2,1.241012812E0,1.241860270E0
1.045451015E1,-1.763112396E-1,6.928295828E-3,-8.207231760E-1,8.394761379E-1
1.047385351E1,-2.625387013E-1,-1.989800856E-2,-1.381619811E0,1.406483488E0
1.049317152E1,-2.572504282E-1,-1.901105233E-2,-1.217627764E0,1.244651186E0
1.051248941E1,-1.691182405E-1,2.124707028E-2,-4.651825726E-1,4.954263246E-1
1.053180743E1,-4.217764363E-2,7.508908398E-3,5.181642771E-1,5.199322604E-1
1.055115079E1,2.032857947E-2,-4.634499177E-2,1.366234541E0,1.367171507E0
1.057046880E1,2.261751518E-2,-4.637774825E-2,1.557833910E0,1.558688211E0
1.058978682E1,8.203570032E-4,-1.961245388E-2,1.024040818E0,1.024228939E0
1.060913018E1,-5.948276445E-2,2.365458012E-2,3.871041909E-2,7.480798736E-2
1.062844820E1,-1.776991636E-1,-1.792218722E-2,-9.323619604E-1,9.493139748E-1
1.064776621E1,-2.455250770E-1,-3.192087635E-2,-1.369974613E0,1.392168074E0
1.066708423E1,-2.077832520E-1,9.591558948E-3,-1.096506953E0,1.116061547E0
1.068642759E1,-7.545045018E-2,3.642978519E-2,-2.499920726E-1,2.636587492E-1
1.070574560E1,6.898397114E-4,-1.815037616E-2,7.212973237E-1,7.215259810E-1
1.072506349E1,2.001730353E-2,-4.461592808E-2,1.406030774E0,1.406880880E0
1.074438151E1,6.484488398E-2,-3.095518798E-2,1.472762346E0,1.474514161E0
1.076386463E1,2.130818553E-2,2.342827059E-2,7.334154844E-1,7.340989003E-1
1.078318265E1,-7.171849720E-3,1.525024790E-2,-2.645609379E-1,2.650971432E-1
1.080250066E1,-1.635323465E-1,-2.336869203E-2,-1.029519200E0,1.042688212E0
1.082184402E1,-2.111563236E-1,-2.422962524E-2,-1.301497221E0,1.318737686E0
1.084116217E1,-1.953372508E-1,-4.761061817E-2,-2.510694563E-1,3.216508735E-1
1.086048018E1,-4.057387635E-2,3.278331831E-2,1.727408171E-1,1.804449370E-1
1.087979820E1,-1.169266775E-1,2.115664184E-1,-1.200627327E0,1.224719631E0
1.089914156E1,2.847006172E-2,-1.359177083E-1,1.457817793E0,1.464416910E0
1.091845957E1,6.532201171E-2,-1.545311511E-1,1.705294251E0,1.713527159E0
1.093777759E1,1.586730243E-3,6.442458928E-2,3.973335922E-1,4.025258115E-1
1.095712068E1,2.048289403E-2,7.768011838E-2,5.719249249E-1,5.775394960E-1
