"Time (s)","Linear Acceleration x (m/s^2)","Linear Acceleration y (m/s^2)","Linear Acceleration z (m/s^2)","Absolute acceleration (m/s^2)"
0.000000000E0,-1.740314364E-1,2.639580369E-1,-8.143677711E-1,8.735878049E-1
1.932909900E-2,-4.242889285E-1,1.573520899E-1,2.611749768E-1,5.224874578E-1
3.863197700E-2,-4.538134634E-1,6.513764709E-2,2.653673291E-1,5.297257706E-1
5.796264200E-2,-4.660860300E-1,3.891006857E-2,2.375081331E-1,5.245572362E-1
7.726375800E-2,-9.725604653E-1,1.746425331E-1,2.557431459E-1,1.020675477E0
9.659505400E-2,-9.695320129E-1,1.608911157E-1,7.791630179E-2,9.858748528E-1
1.159523980E-1,-9.287885427E-1,1.466140449E-1,3.503431976E-1,1.003436192E0
1.352710260E-1,-5.919104815E-1,4.847900569E-2,2.894598246E-1,6.606778505E-1
1.546141640E-1,-9.129217863E-1,1.629991382E-1,3.088877499E-1,9.774490007E-1
1.739216680E-1,-1.077291369E0,7.038863748E-2,-1.618205905E-1,1.091648826E0
1.931708480E-1,-1.078042507E0,6.899182498E-2,-1.616302282E-1,1.092272791E0
2.125101120E-1,-9.690803885E-1,8.886742289E-4,5.738685727E-1,1.126251627E0
2.318521760E-1,-8.682500124E-1,2.673230469E-1,6.102387905E-1,1.094399871E0
2.511684640E-1,-9.862073660E-1,1.759712547E-1,-1.666630507E-1,1.015552768E0
2.705101920E-1,-9.263444543E-1,2.920489013E-2,3.554807603E-1,9.926396852E-1
2.898264800E-1,-1.013960481E0,1.594567746E-1,1.194515452E-1,1.033349404E0
3.091427680E-1,-9.535858035E-1,5.644266307E-2,1.920365989E-1,9.743663142E-1
3.284732320E-1,-9.534605145E-1,4.076705873E-1,6.071130279E-3,1.036975949E0
3.478157920E-1,-9.017719030E-1,3.247574568E-1,1.602652073E-1,9.717741031E-1
3.671330080E-1,-8.180604577E-1,2.024566680E-1,3.637632132E-1,9.178972111E-1
3.864502240E-1,-8.031378388E-1,3.379576802E-1,2.513903379E-1,9.068863676E-1
4.057928480E-1,-7.013714314E-1,2.905017138E-1,2.157391757E-1,7.892125964E-1
4.251100640E-1,-6.011291742E-1,2.685874403E-1,1.431790739E-1,6.737920632E-1
4.444526880E-1,-4.910553396E-1,2.601588368E-1,3.131748736E-2,5.565956808E-1
4.637699040E-1,-4.368642867E-1,2.159434706E-1,-5.997475237E-2,4.909979209E-1
4.831182490E-1,-3.408416212E-1,1.628758460E-1,2.876467109E-1,4.748075212E-1
5.024608730E-1,-1.800371110E-1,1.238253936E-1,7.995760441E-1,8.288956145E-1
5.217743130E-1,-1.873990744E-1,1.071553230E-1,7.376726270E-1,7.686101619E-1
5.410913050E-1,-1.789150238E-1,1.290027797E-1,4.413095713E-1,4.933623826E-1
5.604337050E-1,-1.809214205E-1,1.180809215E-1,2.264149934E-1,3.129527339E-1
5.797508250E-1,-1.831838638E-1,7.128030807E-2,9.363656491E-2,2.177269312E-1
5.990678810E-1,-2.044371963E-1,6.519840658E-2,5.749658868E-2,2.221514284E-1
6.184047770E-1,-2.569618523E-1,5.301821977E-2,1.448766440E-1,2.997158106E-1
6.377215770E-1,1.217439100E-1,1.935944557E-1,-5.814867616E-1,6.248417774E-1
6.570384410E-1,3.164654672E-1,1.833548546E-1,-1.374179602E0,1.422019329E0
6.763806490E-1,1.573617578E0,-2.758451402E-1,1.656047630E1,1.663735971E1
6.956975130E-1,4.362917900E0,-7.542912364E-1,1.625989914E1,1.685195324E1
7.150144410E-1,1.993623376E0,-4.359762073E-1,-8.795805931E0,9.029441367E0
7.343587610E-1,2.228720665E0,-5.744629502E-1,-8.786517143E0,9.082955851E0
7.536756890E-1,-2.157328367E0,1.929508448E0,-3.340877914E1,3.353391705E1
7.729926170E-1,2.923987865E0,-1.133033752E0,1.090546036E1,1.134735811E1
7.923348890E-1,9.273269176E-1,-4.810160100E-1,1.725605965E1,1.728765184E1
8.116698580E-1,1.134939671E0,1.133789420E0,9.100296021E0,9.240614382E0
8.310084660E-1,7.307764292E-1,-4.951233566E-1,1.030807400E1,1.034579967E1
8.503252660E-1,4.681194723E-1,-5.860037208E-1,-4.888212681E0,4.945418022E0
8.696487400E-1,-1.671443820E0,-1.143408865E-1,-2.114389992E1,2.121016978E1
8.889908840E-1,-3.990232944E-1,3.263715208E-1,-1.709067726E1,1.709844985E1
9.083022580E-1,1.571801305E0,3.080946207E-1,-7.843828797E-1,1.783462402E0
9.276172020E-1,2.464662313E0,-1.073706388E0,2.204780388E1,2.221110222E1
9.469624160E-1,2.170810699E0,-2.806808352E-1,1.748193741E1,1.761843740E1
9.662813510E-1,1.798773885E0,8.076547980E-1,1.479366422E0,2.465039304E0
9.855932870E-1,1.171193570E-1,-3.765729666E-1,-5.297468662E0,5.312127481E0
1.004943191E0,-1.269924998E0,-4.670381919E-2,-1.672128296E1,1.676950192E1
1.024246738E0,-9.713535309E-1,5.573595762E-1,-1.620718575E1,1.624583169E1
1.043569689E0,1.526844144E0,3.155557811E-1,2.398724109E-1,1.577455947E0
1.062831646E0,2.068965197E0,-8.993178010E-1,2.061238670E1,2.073547383E1
1.082148126E0,2.138618946E0,-2.856693566E-1,1.574997520E1,1.589707573E1
1.101464606E0,1.862818241E0,6.906948090E-1,1.263539910E0,2.354502967E0
1.120805534E0,2.105536908E-1,-3.102641404E-1,-6.114521027E0,6.126007189E0
1.140122014E0,-1.306285977E0,-3.910377994E-2,-1.650548172E1,1.655713861E1
1.159438622E0,-9.298033118E-1,4.855431318E-1,-1.415892982E1,1.419773151E1
1.178780446E0,1.038917422E0,2.646335065E-1,1.695598483E0,2.006099329E0
1.198097054E0,1.677914262E0,-8.131039143E-1,1.950480652E1,1.959372378E1
1.217414430E0,1.866671443E0,-9.466673434E-2,1.378273678E1,1.390889130E1
1.236756382E0,1.534406781E0,5.812536478E-1,9.621382356E-1,1.902096201E0
1.256072862E0,3.973821551E-2,-3.512515426E-1,-6.645880222E0,6.655274653E0
1.275389470E0,-1.343597531E0,2.198720723E-2,-1.631568336E1,1.637092732E1
1.294705822E0,-6.078513265E-1,4.618568718E-1,-1.248215961E1,1.250548294E1
1.314047774E0,-9.208756685E-1,5.294308662E-1,-1.246555996E1,1.251073516E1
1.333368094E0,7.432232499E-1,1.938252002E-1,3.134356737E0,3.227094849E0
1.352684702E0,1.451240897E0,7.119853795E-2,1.198550129E1,1.207325186E1
1.372026654E0,9.990212917E-1,4.615068436E-1,6.490430832E-1,1.277610673E0
1.391343262E0,-3.242763877E-1,-3.467501998E-1,-7.109483719E0,7.125317511E0
1.410685214E0,-1.324003577E0,8.335777372E-2,-1.600207520E1,1.605697184E1
1.430000542E0,-1.450513005E-1,3.970844746E-1,-1.098996544E1,1.099809330E1
1.449342494E0,1.135135531E0,8.289553225E-3,4.400431156E0,4.544490703E0
1.468659102E0,1.289490342E0,-6.172766089E-1,1.761253929E1,1.767046564E1
1.487975582E0,1.253045321E0,1.290545762E-1,1.045460510E1,1.053022058E1
1.507317534E0,7.149230838E-1,2.973163724E-1,4.555059969E-1,8.983305373E-1
1.526629568E0,-4.943999946E-1,-3.093567193E-1,-7.504534721E0,7.527162435E0
1.545946048E0,-1.317144275E0,1.401358992E-1,-1.560764027E1,1.566374610E1
1.565288000E0,-9.041125304E-4,3.911696970E-1,-9.736174583E0,9.744029457E0
1.584604480E0,1.099834323E0,-1.138031408E-1,5.573459148E0,5.682080039E0
1.603921088E0,1.185886383E0,-5.466992855E-1,1.669763184E1,1.674861533E1
1.623294513E0,1.343659878E0,2.121978700E-1,9.205849648E0,9.305810955E0
1.642610993E0,5.340341926E-1,1.988503337E-1,3.306209743E-1,6.588203114E-1
1.661952817E0,-4.649713039E-1,-3.157923520E-1,-7.858608723E0,7.878683531E0
1.681269425E0,-1.413945556E0,1.488967687E-1,-1.514546394E1,1.521205083E1
1.700585905E0,-1.512284875E-1,4.233718812E-1,-8.596253395E0,8.608001292E0
1.719923140E0,9.258885980E-1,-1.648188680E-1,6.587181091E0,6.653975480E0
1.739239620E0,1.158711195E0,-5.213115811E-1,1.581041336E1,1.586138544E1
1.758555972E0,1.333049655E0,2.714753449E-1,8.234945297E0,8.346558829E0
1.777897668E0,7.140303254E-1,1.884984821E-1,1.546778977E-1,7.545172201E-1
1.797214148E0,-5.498858690E-1,-2.841206491E-1,-8.172005653E0,8.195411851E0
1.816530500E0,-1.470745087E0,1.365457922E-1,-1.455977535E1,1.463450697E1
1.835844978E0,-8.451126516E-2,3.818506300E-1,-7.518867493E0,7.529031839E0
1.855186674E0,9.997370243E-1,-1.939397603E-1,7.362951756E0,7.433044148E0
1.874503026E0,1.166466951E0,-4.370626509E-1,1.488021564E1,1.493226328E1
1.893819250E0,1.273719072E0,-4.804917872E-1,1.486880779E1,1.493099721E1
1.913135474E0,1.528960586E0,3.349170089E-1,7.410802364E0,7.574290829E0
1.932479467E0,-6.966818571E-1,-1.910559535E-1,-8.458036423E0,8.488830786E0
1.951795819E0,-1.348123908E0,1.625845432E-1,-1.394692612E1,1.401287336E1
1.971112171E0,1.464418322E-1,3.105790317E-1,-6.505587101E0,6.514642590E0
1.990453739E0,1.206786990E0,-2.244550586E-1,7.933289528E0,8.027689434E0
2.009770091E0,1.193879128E0,-2.810253501E-1,1.392535210E1,1.397926156E1
2.029091877E0,1.020893931E0,2.787814140E-1,6.800950527E0,6.882795331E0
2.048433701E0,3.373129368E-1,4.205580335E-3,-5.567433313E-2,3.419025235E-1
2.067750181E0,-7.019357085E-1,-1.439659297E-1,-8.689567566E0,8.719060982E0
2.087066661E0,-1.258422613E0,2.275458127E-1,-1.330688095E1,1.336818930E1
2.106383013E0,1.565363854E-1,2.793668211E-1,-5.605710030E0,5.614849454E0
2.125704987E0,1.144176722E0,-2.752910256E-1,8.274489403E0,8.357756900E0
2.145046939E0,1.145997524E0,-2.232919335E-1,1.302414513E1,1.307637281E1
2.164363547E0,9.857791662E-1,2.800184190E-1,6.253010750E0,6.336427567E0
2.183679899E0,3.039692938E-1,-3.218619898E-2,-2.473983467E-1,3.932419420E-1
2.202996507E0,-6.468324661E-1,-1.297720820E-1,-8.866821289E0,8.891330204E0
2.222345619E0,-1.321814895E0,2.291640341E-1,-1.265209484E1,1.272301908E1
2.241662227E0,-7.470392436E-2,2.898503542E-1,-4.736409187E0,4.745857762E0
2.260978963E0,9.219555259E-1,-2.896035612E-1,8.450757980E0,8.505832273E0
2.280321043E0,1.131785989E0,-1.988645643E-1,1.213304996E1,1.218734541E1
2.299637779E0,1.111781001E0,2.819726169E-1,5.786417961E0,5.898999777E0
2.318954387E0,4.331629574E-1,-3.196985647E-2,-4.323387742E-1,6.128368748E-1
2.338307158E0,-6.534734368E-1,-7.985485345E-2,-8.907665253E0,8.931959728E0
2.357624150E0,-1.241811991E0,2.072914690E-1,-1.198428726E1,1.205023684E1
2.376941014E0,-7.639279962E-2,2.279197872E-1,-3.972757101E0,3.980022899E0
2.396258006E0,8.490567803E-1,-2.687282860E-1,8.422624588E0,8.469575979E0
2.415600342E0,1.061439872E0,-1.474478841E-1,1.139500809E1,1.144528745E1
2.434926360E0,1.025968075E0,2.457067221E-1,5.444274426E0,5.545548332E0
2.454243480E0,3.826373518E-1,-4.931938648E-2,-6.503765583E-1,7.561966758E-1
2.473585944E0,-6.729846001E-1,-2.922893129E-2,-8.934848785E0,8.960205657E0
2.492921820E0,-7.024923563E-1,-5.523997545E-2,-8.934594154E0,8.962338962E0
2.512235200E0,-1.369467616E0,2.209009826E-1,-1.131072521E1,1.139547031E1
2.531583756E0,9.060190320E-1,-2.489424497E-1,8.247799873E0,8.301147245E0
2.550905904E0,9.591014385E-1,-8.191192150E-2,1.064798737E1,1.069140870E1
2.570214740E0,7.371925712E-1,1.941257566E-1,5.224496365E0,5.279820069E0
2.589557332E0,1.379695684E-1,-8.229163289E-2,-8.348407149E-1,8.501567702E-1
2.608882909E0,-7.147363424E-1,3.621728346E-2,-8.920798302E0,8.949458200E0
2.628219855E0,-9.633142352E-1,2.306417525E-1,-1.070501041E1,1.075074034E1
2.647537103E0,7.817713171E-2,1.198887601E-1,-2.701156616E0,2.704945849E0
2.666885079E0,8.396825194E-1,-2.513178289E-1,8.097818375E0,8.145114475E0
2.686201175E0,8.960700035E-1,-4.531961307E-2,1.003316498E1,1.007320181E1
2.705511454E0,6.902049184E-1,1.698374748E-1,4.936693668E0,4.987601826E0
2.724852449E0,8.999607712E-2,-6.933152676E-2,-9.985716343E-1,1.005013166E0
2.744172833E0,-7.144211531E-1,4.637663439E-2,-8.757204056E0,8.786419706E0
2.763518289E0,-9.048857093E-1,2.198598534E-1,-1.011910439E1,1.016186155E1
2.782836405E0,-1.071754396E-1,1.416163892E-1,-2.281916857E0,2.288817668E0
2.802155490E0,6.334409118E-1,-2.302310467E-1,7.888544083E0,7.917283718E0
2.821498478E0,8.793585896E-1,-2.746184543E-2,9.522882462E0,9.563436415E0
2.840812590E0,8.278769851E-1,1.853862107E-1,4.678385735E0,4.754686260E0
2.860146828E0,2.262231410E-1,-5.955355614E-2,-1.235890985E0,1.257835467E0
2.879466974E0,-7.180366516E-1,7.752218284E-3,-8.580335617E0,8.610330774E0
2.898819286E0,-9.940088391E-1,1.996125281E-1,-9.530730247E0,9.584504045E0
2.918123888E0,-7.153197378E-2,1.287596226E-1,-1.859350324E0,1.865175458E0
2.937433907E0,6.049044132E-1,-2.071094811E-1,7.601352692E0,7.628195490E0
2.956781429E0,8.164067268E-1,-1.363214664E-2,9.058043480E0,9.094770886E0
2.976103155E0,7.441347241E-1,1.456364095E-1,4.500581264E0,4.564009002E0
2.995412723E0,1.957909614E-1,-6.239267066E-2,-1.385630012E0,1.400784593E0
3.014758748E0,-7.211055160E-1,2.145047113E-2,-8.416722298E0,8.447583532E0
3.034079103E0,-9.428904653E-1,1.898721308E-1,-9.026331902E0,9.077431435E0
3.053393360E0,1.222112179E-1,8.814586699E-2,-1.487892509E0,1.495503057E0
3.072704812E0,6.500351429E-1,-1.516218334E-1,7.374690056E0,7.404835467E0
3.092049318E0,7.447267175E-1,9.011318325E-4,8.625070572E0,8.657162414E0
3.111365037E0,5.110207796E-1,9.423061460E-2,4.319578648E0,4.350721933E0
3.130673909E0,-4.540739954E-2,-6.073528528E-2,-1.503148794E0,1.505060432E0
3.149990752E0,-7.229933143E-1,7.967821509E-2,-8.239135742E0,8.271180431E0
3.169337379E0,-7.469413280E-1,2.003300190E-1,-8.565535545E0,8.600375145E0
3.188648861E0,9.636667371E-2,6.523662060E-2,-1.200653076E0,1.206279471E0
3.206996971E0,5.867451429E-1,-1.679898351E-1,7.169981956E0,7.195910763E0
3.226338276E0,6.779597998E-1,-1.078205416E-3,8.283148766E0,8.310847377E0
3.245655140E0,4.736288786E-1,1.089761779E-1,4.087763786E0,4.116553521E0
3.264972132E0,-6.587476283E-2,-2.194709703E-2,-1.707163811E0,1.708575265E0
3.284314468E0,-7.242183685E-1,4.821240902E-2,-8.102869034E0,8.135312118E0
3.303631204E0,-7.377255559E-1,1.752222329E-1,-8.074598312E0,8.110122054E0
3.322948196E0,9.833341837E-2,5.380053446E-2,-8.316467404E-1,8.391664075E-1
3.342263977E0,4.880083501E-1,-1.499293149E-1,6.986642361E0,7.005269618E0
3.361606313E0,6.928535104E-1,-1.342455950E-2,7.869479179E0,7.899932200E0
3.380923177E0,5.622221828E-1,7.861588150E-2,3.872656822E0,3.914044596E0
3.400239913E0,3.927339986E-2,-2.982177772E-2,-1.848148346E0,1.848806114E0
3.419582249E0,-7.118672729E-1,7.547470182E-2,-7.911942482E0,7.944261154E0
3.438897058E0,-8.405848742E-1,1.579765528E-1,-7.635180473E0,7.682936963E0
3.458213794E0,-5.988803506E-2,4.713892564E-2,-5.226325989E-1,5.281604761E-1
3.477556002E0,4.564908147E-1,-1.258101314E-1,6.795108795E0,6.811586863E0
3.496872866E0,6.809108853E-1,1.396100689E-2,7.514015198E0,7.544816693E0
3.516214946E0,5.167513490E-1,9.246165305E-2,3.667807341E0,3.705184449E0
3.535526500E0,-3.357888386E-2,-4.564511776E-2,-1.970590115E0,1.971404681E0
3.554843108E0,-7.275517583E-1,6.224356964E-2,-7.720977783E0,7.755430597E0
3.574159716E0,-7.735372186E-1,1.609178185E-1,-7.212444305E0,7.255591446E0
3.593501796E0,-2.155524492E-2,6.021399051E-2,-2.909154594E-1,2.978626491E-1
3.612818404E0,-1.511859447E-1,6.811755896E-2,-2.812779546E-1,3.265187275E-1
3.632160167E0,4.368959963E-1,-1.140953749E-1,6.564097404E0,6.579610217E0
3.651476647E0,3.230261207E-1,3.101627715E-2,3.539944410E0,3.554787520E0
3.670793255E0,-1.550037116E-1,-1.310976781E-2,-2.047938585E0,2.053837984E0
3.690135207E0,-6.970037818E-1,1.140299141E-1,-7.529849052E0,7.562899169E0
3.709451943E0,-6.103109717E-1,1.546243578E-1,-6.834001064E0,6.862940967E0
3.728769770E0,5.715980008E-2,1.814515144E-2,-9.470647573E-2,1.120973051E-1
3.748086378E0,4.686988592E-1,-9.725581110E-2,6.352368832E0,6.370378881E0
3.767428330E0,5.713898540E-1,3.349548206E-2,6.903536320E0,6.927223255E0
3.786744938E0,3.200915456E-1,4.509655386E-2,3.348487139E0,3.364053866E0
3.806061546E0,-1.958320588E-1,-4.218862578E-2,-2.143281937E0,2.152623408E0
3.825378154E0,-7.222409844E-1,8.619271219E-2,-7.311669827E0,7.347759990E0
3.844720106E0,-5.843510628E-1,1.432936937E-1,-6.438618660E0,6.466669119E0
3.864036714E0,9.171117842E-2,4.596618563E-2,5.545985326E-2,1.166174335E-1
3.883353194E0,4.333760738E-1,-9.979958087E-2,6.147610664E0,6.163675175E0
3.902669930E0,5.022404194E-1,5.862727761E-3,6.670876026E0,6.689758349E0
3.922354972E0,4.270219505E-1,5.078540370E-2,3.176341772E0,3.205319634E0
3.941705108E0,-9.115382284E-2,-1.071779337E-2,-2.256100416E0,2.257966558E0
3.961021844E0,-7.137117386E-1,7.766979933E-2,-7.079987049E0,7.116293534E0
3.980338452E0,-6.862680912E-1,1.399026960E-1,-6.053402424E0,6.093785159E0
3.999655188E0,-4.922220111E-2,1.626373641E-2,1.994436532E-1,2.060706311E-1
4.018971924E0,3.739146292E-1,-8.117789775E-2,5.879024982E0,5.891463039E0
4.038329472E0,5.419220924E-1,2.930095233E-2,6.392813683E0,6.415808981E0
4.057646336E0,3.651437163E-1,2.271791175E-2,3.080640793E0,3.102288467E0
4.076963328E0,-1.083419099E-1,-1.257502101E-2,-2.269605160E0,2.272224391E0
4.096280320E0,-6.848568320E-1,9.206614643E-2,-6.875402451E0,6.910040804E0
4.115622656E0,-6.548129320E-1,1.413043290E-1,-5.753382206E0,5.792249451E0
4.134947192E0,-6.287392974E-2,1.513920072E-2,3.220292628E-1,3.284587836E-1
4.154264184E0,3.562425077E-1,-9.602480382E-2,5.701143742E0,5.713070055E0
4.173606776E0,3.516130447E-1,-1.032878906E-1,5.701540947E0,5.713306336E0
4.192923768E0,3.559526801E-1,3.574712574E-2,2.889703274E0,2.911763242E0
4.212240888E0,-2.105663717E-1,3.422015533E-2,-2.279437065E0,2.289397857E0
4.231583352E0,-4.999815673E-2,1.750850677E-2,-2.284893036E0,2.285507066E0
4.250900600E0,-5.253488421E-1,8.054029197E-2,-5.456897736E0,5.482719311E0
4.270217720E0,5.323274806E-2,-7.707579061E-3,3.829675317E-1,3.867263407E-1
4.289560184E0,3.858962059E-1,-2.497833036E-2,5.478559971E0,5.492190743E0
4.308877304E0,4.575471580E-1,5.878813937E-2,5.973051071E0,5.990838384E0
4.328194424E0,2.350685149E-1,5.459772889E-3,2.773809910E0,2.783757969E0
4.347511544E0,-2.242566347E-1,-7.926304825E-3,-2.347534895E0,2.358235346E0
4.366854008E0,-6.667652726E-1,9.819775820E-2,-6.411754608E0,6.447078089E0
4.386171128E0,-5.365591645E-1,9.527930617E-2,-5.143275261E0,5.172064800E0
4.405488120E0,4.957712069E-2,-7.961424999E-3,4.785152972E-1,4.811425618E-1
4.424830584E0,3.662650883E-1,-4.001068696E-2,5.273656368E0,5.286511370E0
4.444171579E0,4.290479422E-1,3.149277344E-2,5.740472794E0,5.756570318E0
4.463489083E0,2.019147426E-1,1.880910248E-2,2.664327383E0,2.672033636E0
4.482831931E0,-2.391486466E-1,-9.333951399E-3,-2.361099243E0,2.373198018E0
4.502149435E0,-6.620175242E-1,7.103419304E-2,-6.207212448E0,6.242819830E0
4.521467067E0,-5.983356833E-1,1.307376176E-1,-4.880633354E0,4.918910433E0
4.540818483E0,-5.894204602E-2,3.856924549E-2,5.533099771E-1,5.577756558E-1
4.560136115E0,3.157819510E-1,-4.544701055E-2,5.113164902E0,5.123108332E0
4.579453747E0,4.352267981E-1,-1.038950216E-2,5.531328201E0,5.548434192E0
4.598796851E0,2.730567455E-1,5.831036251E-3,2.494015932E0,2.508925957E0
4.618114611E0,-1.719222069E-1,3.756988421E-2,-2.391430855E0,2.397897053E0
4.637440374E0,-6.225168705E-1,1.088885218E-1,-5.988858700E0,6.022110302E0
4.656783606E0,-5.657925606E-1,9.049537778E-2,-4.621486664E0,4.656871226E0
4.676101494E0,-7.162996382E-2,-3.339510644E-3,6.213485599E-1,6.254726508E-1
4.695419382E0,3.102831841E-1,-3.320645168E-2,4.962679863E0,4.972481246E0
4.714737270E0,4.305882752E-1,2.978194319E-2,5.353579521E0,5.370950281E0
4.734085176E0,2.765016854E-1,1.812261902E-2,2.344001532E0,2.360323027E0
4.753403192E0,3.883997798E-1,1.532842591E-2,2.338466644E0,2.370551749E0
4.772721336E0,-1.266514957E-1,-1.037934516E-2,-2.406480312E0,2.409833153E0
4.792064696E0,-4.597485363E-1,9.790717810E-2,-4.379445553E0,4.404599628E0
4.811609941E0,5.190850794E-2,1.767443679E-2,6.834623218E-1,6.856585332E-1
4.830928845E0,3.544221222E-1,-1.762383804E-2,4.809374332E0,4.822448249E0
4.850246989E0,3.754802942E-1,2.871664939E-3,5.166125774E0,5.179753779E0
4.869590477E0,1.395279318E-1,-1.011797320E-2,2.240820646E0,2.245183197E0
4.888908493E0,-2.719619274E-1,2.765103988E-2,-2.360856533E0,2.376630270E0
4.908226637E0,-6.091883779E-1,9.771394730E-2,-5.593465328E0,5.627389526E0
4.927569997E0,-4.550177157E-1,7.114837319E-2,-4.161198139E0,4.186606402E0
4.946883771E0,2.220518142E-2,3.509644186E-3,7.108443379E-1,7.111997332E-1
4.966201787E0,3.041540682E-1,-1.885713451E-2,4.672849655E0,4.682775800E0
4.985519803E0,3.569278717E-1,1.625722647E-2,5.001989841E0,5.014734707E0
5.004863163E0,1.453858763E-1,1.666615531E-2,2.104238987E0,2.109321343E0
5.024181179E0,-2.731041312E-1,1.299674530E-2,-2.401666880E0,2.417179882E0
5.043495987E0,-6.169097424E-1,5.707744136E-2,-5.388924599E0,5.424421056E0
5.062839219E0,-5.056958199E-1,9.077196568E-2,-3.925877333E0,3.959353564E0
5.082157235E0,-2.822321095E-2,3.395062312E-2,7.573841214E-1,7.586698240E-1
5.101475123E0,2.505733669E-1,-2.202274837E-2,4.538690567E0,4.545655517E0
5.120818483E0,3.459797502E-1,-1.147411950E-2,4.834192276E0,4.846570809E0
5.140137634E0,2.018407583E-1,1.550989691E-2,2.003108978E0,2.013312154E0
5.159455522E0,-2.070791870E-1,3.476902470E-2,-2.377044201E0,2.386300444E0
5.178773538E0,-5.663398504E-1,6.967625767E-2,-5.211298943E0,5.242445257E0
5.198091554E0,-5.118407011E-1,5.016555265E-2,-3.734908104E0,3.770150664E0
5.217434914E0,-5.474834889E-2,1.933998615E-2,7.981977463E-1,8.003068530E-1
5.236752747E0,2.711037695E-1,-9.260535240E-3,4.374704361E0,4.383106348E0
5.256070763E0,3.387849927E-1,-1.163690817E-2,4.643038750E0,4.655396817E0
5.275388779E0,1.613417119E-1,-1.196967531E-2,1.866886258E0,1.873883327E0
5.294706667E0,-2.142269164E-1,3.441024572E-2,-2.308678865E0,2.318852160E0
5.314024683E0,-5.627134442E-1,1.106239632E-1,-5.006661415E0,5.039399032E0
5.333372846E0,-6.119663119E-1,1.130101159E-1,-5.004878044E0,5.043419305E0
5.352690990E0,-5.604044199E-1,8.321737498E-2,-3.552498102E0,3.597390862E0
5.372034478E0,2.513770461E-1,-3.525161371E-2,4.249465942E0,4.257040509E0
5.391352622E0,2.850292921E-1,2.883306704E-2,4.523452282E0,4.532515151E0
5.410670766E0,9.026623517E-2,1.505499240E-2,1.803765059E0,1.806085001E0
5.429988782E0,-2.678731978E-1,2.453132160E-2,-2.292335987E0,2.308064582E0
5.449332270E0,-5.609109402E-1,7.079219818E-2,-4.843280315E0,4.876166202E0
5.468650286E0,-4.067676663E-1,7.264734805E-2,-3.383556366E0,3.408693482E0
5.487993902E0,4.617982777E-4,1.496668439E-2,7.930394411E-1,7.931807928E-1
5.507311918E0,2.429630011E-1,-9.031849913E-3,4.112876892E0,4.120056908E0
5.526792473E0,2.928095460E-1,1.247681561E-3,4.332174301E0,4.342058632E0
5.546108870E0,8.020985872E-2,1.449375134E-2,1.694578528E0,1.696537674E0
5.565427014E0,-2.845544219E-1,3.734807298E-2,-2.224097013E0,2.242537318E0
5.584770374E0,-5.417110920E-1,5.706494674E-2,-4.652321815E0,4.684101364E0
5.604088390E0,-4.127748311E-1,4.553464428E-2,-3.233489752E0,3.260047920E0
5.623431878E0,1.005065977E-3,5.530316266E-4,7.930094600E-1,7.930102897E-1
5.642742793E0,2.245914042E-1,1.531879604E-2,3.978053570E0,3.984417921E0
5.662060681E0,3.316929340E-1,1.365405787E-2,4.192128181E0,4.205252112E0
5.681404041E0,1.381757855E-1,-1.176688005E-3,1.621502161E0,1.627379240E0
5.700721801E0,-2.430300564E-1,-8.152878843E-3,-2.212756872E0,2.226077953E0
5.720039689E0,-5.452259779E-1,6.969723850E-2,-4.474649906E0,4.508283582E0
5.739380801E0,-4.618146122E-1,7.614044845E-2,-3.080268383E0,3.115625686E0
5.758698689E0,-5.872345716E-2,1.542063896E-2,7.975617647E-1,7.998693700E-1
5.778016449E0,2.039754391E-1,-1.245321147E-2,3.841349602E0,3.846781489E0
5.797334209E0,2.960332632E-1,-6.532032276E-4,4.041939259E0,4.052765610E0
5.816677441E0,1.375817508E-1,-1.561396848E-2,1.512573481E0,1.518897978E0
5.835989287E0,-2.496992648E-1,1.902722195E-2,-2.144395113E0,2.158967846E0
5.855307047E0,-5.265301466E-1,7.002815604E-2,-4.310894012E0,4.343494575E0
5.874650151E0,-4.529883265E-1,8.955579996E-2,-2.957451105E0,2.993281762E0
5.893967911E0,-5.380707383E-1,9.386326373E-2,-2.952916145E0,3.003005860E0
5.913285671E0,-1.180667728E-1,2.900072932E-2,8.016502261E-1,8.108168043E-1
5.932603175E0,2.172967046E-1,-1.426863577E-2,3.922081470E0,3.928122263E0
5.951921600E0,3.540669754E-2,-1.482118620E-3,1.462433338E0,1.462862639E0
5.971347311E0,-2.801505029E-1,4.885110259E-2,-2.087476969E0,2.106758370E0
5.990664943E0,-4.950932562E-1,8.379706740E-2,-4.161224842E0,4.191411632E0
6.009982703E0,-3.631689250E-1,5.853766575E-2,-2.837727547E0,2.861470943E0
6.029325807E0,-1.435440313E-2,1.206270605E-2,7.794930339E-1,7.797185054E-1
6.048639418E0,1.820448488E-1,-2.614692785E-2,3.593789101E0,3.598491919E0
6.067957178E0,1.971079111E-1,-8.727820823E-4,3.785360098E0,3.790488539E0
6.087274810E0,2.553446218E-2,2.553652227E-2,1.394101262E0,1.394568912E0
6.106592442E0,-2.550222874E-1,6.200711057E-2,-2.060139894E0,2.076790224E0
6.125910202E0,-4.607366621E-1,7.004120946E-2,-4.038400650E0,4.065201576E0
6.145261181E0,-3.825924397E-1,4.263262264E-3,-2.701275587E0,2.728238433E0
6.164578941E0,-4.269145057E-2,-1.553568803E-2,8.067985773E-1,8.080766436E-1
6.183896701E0,1.727345884E-1,1.587074366E-4,3.498139143E0,3.502401280E0
6.203214589E0,2.171310782E-1,3.916434199E-2,3.621451378E0,3.628166180E0
6.222557821E0,8.428997546E-2,-3.390373196E-3,1.308205843E0,1.310922889E0
6.241880640E0,-2.514978647E-1,-8.976241574E-3,-1.966709614E0,1.982745181E0
6.261198656E0,-4.926447272E-1,4.296335578E-2,-3.847017527E0,3.878670974E0
6.280516544E0,-3.948086202E-1,6.190881133E-2,-2.561968803E0,2.592950192E0
6.299859776E0,-7.703422010E-2,1.294190064E-2,7.697408199E-1,7.736941862E-1
6.319177792E0,1.590709090E-1,-1.470440626E-2,3.349302769E0,3.353110319E0
6.338503682E0,2.195605636E-1,-2.306448761E-3,3.536687374E0,3.543496824E0
6.357821570E0,5.560367182E-2,-4.183604848E-3,1.281045079E0,1.282258073E0
6.377165186E0,-2.291922271E-1,1.766104065E-2,-1.925643921E0,1.939315730E0
6.396483074E0,-4.573537111E-1,4.270978272E-2,-3.737834215E0,3.765952889E0
6.415801218E0,-4.115031660E-1,4.761303961E-2,-2.480091095E0,2.514448985E0
6.435144578E0,-8.976417035E-2,1.202353463E-2,7.560631633E-1,7.614681074E-1
6.454462722E0,1.498588324E-1,-1.694171806E-3,3.267261505E0,3.270696911E0
6.473780738E0,1.580265015E-1,-2.341091400E-3,3.266674519E0,3.270495416E0
6.493124226E0,2.851645947E-1,-3.397458699E-3,3.409862757E0,3.421767732E0
6.512442242E0,-2.911544740E-1,3.313161060E-2,-1.896283388E0,1.918791109E0
6.531809474E0,-4.384887815E-1,6.933941692E-2,-3.615456343E0,3.642609632E0
6.551154053E0,-3.426519930E-1,4.431825876E-2,-2.373746157E0,2.398759119E0
6.570472197E0,-4.272132739E-2,-3.970090766E-3,7.523230314E-1,7.535454977E-1
6.589790085E0,1.314726323E-1,-1.563880965E-2,3.170317888E0,3.173081332E0
6.609133701E0,1.648450345E-1,1.031958871E-2,3.307050943E0,3.311172953E0
6.628451717E0,8.188190870E-3,3.639052063E-2,1.121095777E0,1.121716121E0
6.647771583E0,-2.518617511E-1,4.607304186E-2,-1.882588267E0,1.899919907E0
6.667115199E0,-4.576090574E-1,4.209951311E-2,-3.492656469E0,3.522758526E0
6.686433343E0,-3.756464720E-1,3.467504168E-3,-2.237283468E0,2.268603009E0
6.705776831E0,-4.404718056E-2,9.066868573E-3,7.796418667E-1,7.809377712E-1
6.725094847E0,1.761856079E-1,2.429792844E-2,3.061087370E0,3.066249769E0
6.744413554E0,1.846362799E-1,9.729532525E-3,3.156794071E0,3.162203983E0
6.763731698E0,-4.376853257E-2,-1.857094653E-2,1.066463828E0,1.067523143E0
6.783075186E0,-2.957533300E-1,2.374768024E-3,-1.816168308E0,1.840093203E0
6.802393202E0,-4.465863705E-1,6.877582520E-2,-3.355792761E0,3.386076572E0
6.821711346E0,-3.651816249E-1,5.952425301E-2,-2.193645716E0,2.224630819E0
6.841049835E0,-8.435394615E-2,2.323407121E-2,7.557181120E-1,7.607662421E-1
6.860396781E0,1.239420772E-1,-1.764833368E-2,3.021028757E0,3.023621645E0
6.879714797E0,1.700430214E-1,-4.971933551E-3,3.099594355E0,3.104259092E0
6.899032941E0,1.924256608E-2,2.005709521E-2,9.947807789E-1,9.951690115E-1
6.918376301E0,-2.561367750E-1,2.912744693E-2,-1.816114187E0,1.834318728E0
6.937690543E0,-4.382405579E-1,5.501872674E-2,-3.287471533E0,3.317009335E0
6.957008431E0,-3.561994135E-1,4.580168054E-2,-2.043582439E0,2.074898793E0
6.976351919E0,-8.421552181E-2,9.072933346E-3,8.101920485E-1,8.146077140E-1
6.995669807E0,-1.273015440E-1,9.379569441E-3,8.130559325E-1,8.230149505E-1
7.014987695E0,1.476364583E-1,-1.927274652E-2,2.976693630E0,2.980414892E0
7.034331055E0,2.089954168E-2,5.640272517E-3,9.129714966E-1,9.132280970E-1
7.053646834E0,-2.464298159E-1,4.218102247E-2,-1.829564214E0,1.846567655E0
7.072990066E0,-2.285749465E-1,4.083182290E-2,-1.830316544E0,1.844985743E0
7.092308082E0,-4.547282159E-1,5.639974773E-2,-3.176580191E0,3.209457959E0
7.111640976E0,-4.766700789E-2,-2.001373842E-2,8.479605913E-1,8.495350833E-1
7.130966055E0,1.031549722E-1,-1.852803864E-2,2.869804144E0,2.871717267E0
7.150313385E0,1.305650920E-1,7.879374549E-3,2.842553377E0,2.845561286E0
7.169633619E0,-4.824243858E-2,3.394470736E-2,8.479955196E-1,8.500446914E-1
7.188945762E0,-2.854696810E-1,3.023487329E-2,-1.786941648E0,1.809852905E0
7.208287384E0,-4.238214195E-1,2.730017714E-2,-3.042337179E0,3.071837464E0
7.227602645E0,-3.137826920E-1,1.603445224E-2,-1.827751040E0,1.854559394E0
7.246919271E0,-3.560195491E-2,2.049296536E-2,8.344333768E-1,8.354439066E-1
7.266267007E0,1.190240383E-1,8.353303187E-3,2.774307728E0,2.776872318E0
7.285591789E0,9.334737062E-2,-5.641631782E-3,2.746960640E0,2.748552040E0
7.304896012E0,-6.015644595E-2,-7.049433421E-3,7.934135199E-1,7.957220030E-1
7.324239244E0,-2.875543237E-1,4.360473529E-2,-1.773223042E0,1.796916476E0
7.343556606E0,-4.152919352E-1,5.440426245E-2,-2.960400581E0,2.989882743E0
7.362865566E0,-3.683743179E-1,1.791116968E-2,-1.688815832E0,1.728617761E0
7.382217538E0,-9.751658887E-2,7.491224445E-3,8.646559715E-1,8.701698413E-1
7.401533348E0,1.255123317E-1,2.122222073E-2,2.706699133E0,2.709690743E0
7.420874137E0,1.172504202E-1,-6.716411561E-3,2.608264923E0,2.610907635E0
7.440188119E0,-3.474626690E-2,-2.266803384E-2,7.223514318E-1,7.235417983E-1
7.459511975E0,-2.865173221E-1,2.790965326E-2,-1.706414938E0,1.730526817E0
7.478859146E0,-3.795585036E-1,6.792061031E-2,-2.837004185E0,2.863087601E0
7.498154095E0,-3.022595942E-1,5.796640366E-2,-1.675088167E0,1.703126928E0
7.517478017E0,-1.097064987E-1,6.874893326E-3,8.237043023E-1,8.310063524E-1
7.536803706E0,5.977466702E-2,-2.022668533E-2,2.652055740E0,2.652806397E0
7.556133063E0,1.195402369E-1,-7.627005689E-3,2.567258358E0,2.570051267E0
7.575450567E0,-2.069088072E-2,1.724800095E-2,6.678493023E-1,6.683923224E-1
7.594767943E0,-2.488377243E-1,2.750349604E-2,-1.692651510E0,1.711065689E0
7.614094766E0,-4.116242230E-1,4.053311422E-2,-2.741446495E0,2.772472961E0
7.633433069E0,-4.463970661E-1,4.194806516E-2,-2.739830494E0,2.776274683E0
7.652746902E0,-3.730905056E-1,4.590776190E-2,-1.576542854E0,1.620737924E0
7.672050198E0,5.882971361E-2,-2.066141553E-2,2.542226553E0,2.542991088E0
7.691394201E0,4.785815999E-2,5.984737538E-3,2.501188517E0,2.501653496E0
7.710710702E0,-7.221848518E-2,1.808766648E-2,6.843642592E-1,6.884018540E-1
7.730030913E0,-2.418744266E-1,4.195808247E-2,-1.609353304E0,1.627968604E0
7.749347087E0,-3.884529769E-1,3.959984705E-2,-2.673764706E0,2.702125379E0
7.768695579E0,-3.153080046E-1,6.333862548E-4,-1.540990591E0,1.572918161E0
7.788006571E0,-9.099504352E-2,-9.225161746E-3,7.936321497E-1,7.988849671E-1
7.807325307E0,1.036663353E-1,5.642162636E-3,2.487478256E0,2.489643874E0
7.826659506E0,9.363391250E-2,1.877389476E-2,2.378276110E0,2.380192644E0
7.845984947E0,-9.808604419E-2,3.858531127E-3,6.298030615E-1,6.374069788E-1
7.865303544E0,-2.999314368E-1,8.335298626E-4,-1.527455807E0,1.556624811E0
7.884613683E0,-3.800457418E-1,3.933763131E-2,-2.537330866E0,2.565936503E0
7.903958740E0,-2.630670667E-1,4.111267999E-2,-1.500018954E0,1.523466901E0
7.923267408E0,-1.300400645E-1,1.847950742E-2,7.279262543E-1,7.396813788E-1
7.942585875E0,5.255708843E-2,-8.366854861E-3,2.391910553E0,2.392502528E0
7.961931967E0,9.825699031E-2,-9.098485112E-3,2.335334301E0,2.337418130E0
7.981254289E0,-1.141397189E-2,1.580905356E-2,6.272251606E-1,6.275281723E-1
8.000600033E0,-2.470802218E-1,2.649984322E-2,-1.515044928E0,1.535288901E0
8.019910152E0,-4.095454812E-1,2.604821883E-2,-2.482133627E0,2.515828562E0
8.039230737E0,-3.350896835E-1,4.247243330E-2,-1.415998220E0,1.455726610E0
8.058556537E0,-1.147449166E-1,1.792080514E-2,7.142003775E-1,7.235811843E-1
8.077897134E0,4.742654786E-2,4.612874705E-3,2.310535192E0,2.311026489E0
8.097215392E0,7.330226898E-2,3.824052634E-3,2.239848137E0,2.241050540E0
8.116526861E0,-5.305266380E-2,-1.181783620E-2,6.136480570E-1,6.160504721E-1
8.135863721E0,-2.501397431E-1,2.613815852E-2,-1.446801186E0,1.468498132E0
8.155183407E0,-3.576793969E-1,5.271527544E-2,-2.400289536E0,2.427365507E0
8.174506175E0,-3.224197328E-1,5.572414771E-2,-1.375084877E0,1.413477302E0
8.193851293E0,-3.705360591E-1,5.751413852E-2,-1.372382998E0,1.422687577E0
8.213155319E0,6.145741418E-2,-2.271130681E-2,2.268737316E0,2.269683200E0
8.232473509E0,3.568357974E-2,-9.554986842E-3,2.159677982E0,2.159993890E0
8.251802783E0,-1.220441163E-1,2.891740296E-3,5.615118146E-1,5.746291381E-1
8.271120159E0,-2.928099930E-1,4.096380994E-2,-1.390931368E0,1.422007664E0
8.290462751E0,-3.511307836E-1,3.895216808E-2,-2.291626692E0,2.318698556E0
8.309779999E0,-2.444781363E-1,1.337871328E-2,-1.308904290E0,1.331607671E0
8.329097119E0,-8.912639320E-2,3.053168999E-3,7.118020058E-1,7.173666644E-1
8.348439960E0,-7.361026946E-3,-9.551625699E-3,2.200683832E0,2.200716871E0
8.367757208E0,1.093518361E-2,3.586426610E-3,2.118654013E0,2.118685268E0
8.387095042E0,-6.586491317E-2,2.953959256E-2,5.205535293E-1,5.255347288E-1
8.406413026E0,-2.520846725E-1,4.024894163E-2,-1.418164730E0,1.440957272E0
8.425839009E0,-3.810396194E-1,1.133954339E-2,-2.223402023E0,2.255844927E0
8.445075823E0,-2.754362226E-1,-4.905957030E-4,-1.213373899E0,1.244243374E0
8.464389192E0,-7.682446390E-2,2.490659244E-3,7.391224504E-1,7.431084700E-1
8.483736973E0,3.647806495E-2,-1.011985354E-2,2.132386684E0,2.132722681E0
8.503041795E0,1.439628098E-2,3.240527818E-3,2.036706686E0,2.036760143E0
8.522384515E0,-6.646881998E-2,1.413799822E-2,5.046769381E-1,5.092315768E-1
8.541701763E0,-2.452290207E-1,2.517195605E-2,-1.351047993E0,1.373354134E0
8.561019139E0,-3.557391763E-1,1.145624928E-2,-2.140954256E0,2.170337931E0
8.580369048E0,-3.146975935E-1,3.424129100E-4,-1.156838298E0,1.198878451E0
8.599691498E0,-1.374205202E-1,-1.127361879E-2,7.139176726E-1,7.271106774E-1
8.619026538E0,3.220601380E-2,2.976647951E-2,2.091809750E0,2.092269414E0
8.638343786E0,6.963302940E-2,1.557377540E-2,1.966819286E0,1.968113159E0
8.657658535E0,-5.375518277E-2,4.812401312E-5,4.774878025E-1,4.805041348E-1
8.676985494E0,-2.618998885E-1,-1.593260653E-2,-1.296421170E0,1.322706789E0
8.696299763E0,-3.860209286E-1,2.464853413E-2,-2.072706938E0,2.108490872E0
8.715642227E0,-2.887443602E-1,2.690454945E-2,-1.143145680E0,1.179355420E0
8.734959347E0,-8.214543760E-2,2.910492942E-2,6.730084419E-1,6.786275361E-1
8.754289899E0,2.828550711E-2,2.307036426E-3,2.023071289E0,2.023270331E0
8.773613563E0,-1.122791227E-2,-2.502550185E-2,1.954881430E0,1.955073847E0
8.792934001E0,-1.336462349E-1,-1.281661075E-2,5.069181919E-1,5.243964482E-1
8.812276349E0,-2.584477961E-1,2.536726557E-2,-1.295260668E0,1.321037077E0
8.831572668E0,-3.358272016E-1,5.117715150E-2,-2.073145866E0,2.100793372E0
8.850889660E0,-2.546135783E-1,2.549325116E-2,-1.131322622E0,1.159900365E0
8.870231868E0,-9.051297605E-2,9.757245425E-4,6.846494079E-1,6.906072419E-1
8.889548860E0,3.983804956E-2,-1.174649689E-2,1.995966196E0,1.996398283E0
8.908891196E0,4.155976698E-3,-1.200757641E-2,1.900286198E0,1.900328679E0
8.928208188E0,-1.476114094E-1,-1.341626514E-2,4.660787284E-1,4.890792425E-1
8.947525052E0,-2.745961845E-1,3.861798719E-2,-1.254272342E0,1.284559660E0
8.966861362E0,-2.984281480E-1,6.420435011E-2,-2.004879475E0,2.027985026E0
8.986178098E0,-2.433127761E-1,2.489208058E-2,-1.090341091E0,1.117436539E0
9.005520434E0,-1.317635030E-1,-4.048282653E-2,6.846734881E-1,6.984112437E-1
9.024837170E0,-1.319081429E-2,-2.584213391E-2,1.955011964E0,1.955227248E0
9.044154034E0,3.297602385E-2,2.793565579E-2,1.818464279E0,1.818977777E0
9.063496242E0,-7.964695245E-2,2.651665732E-2,4.252293408E-1,4.334359958E-1
9.082813106E0,-2.772652507E-1,-2.833177568E-3,-1.240514874E0,1.271125958E0
9.102140641E0,-3.676988482E-1,-4.011781421E-3,-1.908828020E0,1.943924625E0
9.121488239E0,-2.651468813E-1,3.878218308E-2,-1.061219931E0,1.094529427E0
9.140861429E0,-1.070270985E-1,2.700717188E-2,6.183848381E-1,6.281592116E-1
9.160134303E0,-1.557301357E-2,-1.335335616E-2,1.873448610E0,1.873560921E0
9.179457225E0,-9.213260375E-3,-2.773035876E-2,1.803202152E0,1.803438898E0
9.198794539E0,-7.243244350E-2,-2.632027259E-3,4.505297542E-1,4.563227430E-1
9.218112103E0,-2.050118893E-1,6.332013756E-2,-1.186909676E0,1.206148371E0
9.237456389E0,-3.282896876E-1,3.623156622E-2,-1.881514192E0,1.910283356E0
9.256751245E0,-2.920521200E-1,-2.344816225E-3,-1.033996701E0,1.074452939E0
9.276096167E0,-1.599640697E-1,-1.419768948E-2,6.046698093E-1,6.256322053E-1
9.295410003E0,2.680165321E-2,2.695037238E-2,1.846109867E0,1.846501095E0
9.314726523E0,5.936212093E-2,2.638736740E-2,1.735072136E0,1.736287842E0
9.334068774E0,9.354735166E-2,2.575227432E-2,1.733010530E0,1.735724571E0
9.353381508E0,-2.852071524E-1,-1.718159392E-2,-1.131145597E0,1.166674199E0
9.372698175E0,-3.491587937E-1,3.589152917E-2,-1.786480069E0,1.820634808E0
9.391999688E0,-2.341862321E-1,6.400711834E-2,-1.022003174E0,1.050443045E0
9.411316040E0,-8.677178621E-2,1.189726125E-2,5.209907889E-1,5.283013249E-1
9.430632392E0,-1.827480458E-2,-2.750947885E-2,1.736536145E0,1.736850173E0
9.449974088E0,-2.977019362E-2,-1.425939240E-2,1.722780228E0,1.723096430E0
9.469284747E0,-9.572000802E-2,2.497593872E-2,4.662367105E-1,4.766159751E-1
9.488600971E0,-2.308998704E-1,5.011034384E-2,-1.076652646E0,1.102273431E0
9.507942667E0,-3.233423531E-1,8.274358697E-3,-1.786410332E0,1.815456035E0
9.527258891E0,-2.879055738E-1,-4.124457948E-3,-1.035662651E0,1.074943607E0
9.546574987E0,-1.262857169E-1,-2.094176365E-3,5.072922707E-1,5.227790315E-1
9.565916555E0,-3.194139339E-3,2.627596073E-2,1.722824335E0,1.723027660E0
9.585232779E0,1.266833022E-2,-1.108380151E-3,1.668199062E0,1.668247532E0
9.604549003E0,-1.084464267E-1,-2.174054505E-3,4.389436245E-1,4.521469445E-1
9.623890571E0,-2.730490565E-1,2.296495624E-2,-1.049346209E0,1.084532453E0
9.643226502E0,-3.483086228E-1,2.213025093E-2,-1.717754126E0,1.752851357E0
9.662563198E0,-2.786656916E-1,3.736374155E-2,-1.006738544E0,1.045262222E0
9.681879294E0,-1.137081161E-1,2.546249703E-2,4.681354463E-1,4.824196001E-1
9.701195390E0,-2.196061797E-2,-1.489832066E-2,1.641434789E0,1.641649291E0
9.720542276E0,-8.157172240E-3,-1.566052623E-2,1.653316855E0,1.653411145E0
9.739855475E0,-7.851272821E-2,2.349060401E-2,4.644875824E-1,4.716617127E-1
9.759200217E0,-2.146902233E-1,2.170323581E-2,-1.036607027E0,1.058828150E0
9.778522435E0,-3.356693089E-1,2.154762857E-2,-1.704083920E0,1.736962921E0
9.797840009E0,-2.790887356E-1,2.294313721E-2,-9.930932522E-1,1.031819324E0
9.817176593E0,-1.402394325E-1,2.452940866E-2,4.817142189E-1,5.023120335E-1
9.836482826E0,-4.733094946E-2,-1.561508048E-2,1.654937148E0,1.655687475E0
9.855798794E0,-1.896256581E-2,-1.626459509E-2,1.612283707E0,1.612477245E0
9.875133958E0,-7.737661898E-2,-4.467737861E-3,4.099463522E-1,4.172087170E-1
9.894452814E0,-2.162877023E-1,2.108809166E-2,-1.022905231E0,1.045734282E0
9.913770999E0,-3.038720489E-1,2.083225362E-2,-1.663444877E0,1.691100548E0
9.933106667E0,-3.327144086E-1,2.173493989E-2,-1.661989093E0,1.695104430E0
9.952422507E0,-1.271024942E-1,-3.519951832E-3,4.937242866E-1,5.098343900E-1
9.971761070E0,7.141559036E-4,2.462098747E-2,1.599995136E0,1.600184720E0
9.991082026E0,-1.006307639E-2,1.063418109E-2,1.518092632E0,1.518163230E0
1.001039033E1,-1.488046646E-1,-1.755947620E-2,3.844389617E-1,4.126069300E-1
1.002973418E1,-2.774949372E-1,8.038747124E-3,-9.810100198E-1,1.019533580E0
1.004905386E1,-3.061205745E-1,3.397416696E-2,-1.608851194E0,1.638067830E0
1.006836292E1,-2.142783552E-1,4.846942052E-2,-9.126513600E-1,9.387209400E-1
1.008770330E1,-1.005933583E-1,9.757316671E-3,4.937691689E-1,5.040061717E-1
1.010702216E1,-5.380069092E-2,-3.009426594E-2,1.559137344E0,1.560355549E0
1.012633503E1,1.017071232E-1,1.029659435E-1,1.277955025E-1,1.930751535E-1
1.014567608E1,-4.146998376E-2,-2.001111507E-1,1.896343231E0,1.907323225E0
