"Time (s)","Linear Acceleration x (m/s^2)","Linear Acceleration y (m/s^2)","Linear Acceleration z (m/s^2)","Absolute acceleration (m/s^2)"
0.000000000E0,-5.447214246E-1,-1.443411559E-1,-1.969097853E-1,5.969332150E-1
1.932887400E-2,-6.210596561E-1,-3.032914400E-1,7.738301158E-1,1.037551850E0
3.862123800E-2,-6.353529692E-1,-2.371659279E-1,7.756315470E-1,1.030303533E0
5.794783500E-2,-7.187077403E-1,-4.120886922E-1,-1.346667767E0,1.581098346E0
7.727745800E-2,-6.847023964E-1,-5.950735882E-2,-3.136279583E-1,7.554607823E-1
9.654997700E-2,-6.093883514E-1,3.137227520E-2,1.598289251E0,1.710808848E0
1.158503210E-1,-6.081376076E-1,-2.096368372E-2,1.597416401E0,1.709388775E0
1.352437930E-1,-6.353639960E-1,-1.819839478E-1,4.623502791E-1,8.065812701E-1
1.545670540E-1,-6.175433397E-1,-1.450155675E-1,3.002295792E-1,7.018027440E-1
1.739109650E-1,-5.241073966E-1,-2.454593927E-1,1.648750424E0,1.747374270E0
1.932205330E-1,-6.331844330E-1,1.332309395E-1,2.346716821E-1,6.882904967E-1
2.125602720E-1,-6.792678833E-1,-8.293467015E-2,-7.788138390E-1,1.036742018E0
2.318900760E-1,-6.184942126E-1,3.670176864E-2,6.020802259E-1,8.639344358E-1
2.512233030E-1,-6.103162766E-1,5.999705568E-2,1.176506519E0,1.326745339E0
2.705347270E-1,-6.937716603E-1,-9.155372530E-2,-3.546569049E-1,7.845270687E-1
2.898749350E-1,-7.305886149E-1,-6.066129357E-2,-7.634810209E-1,1.058462463E0
3.091914020E-1,-6.048896313E-1,-1.711501479E-1,5.181443095E-1,8.146516830E-1
3.284986490E-1,-5.782657862E-1,-1.099119335E-1,6.807987094E-1,8.999771304E-1
3.478399090E-1,-6.599195004E-1,-6.415154319E-3,-4.626179636E-1,8.059468229E-1
3.671503410E-1,-6.331849098E-1,1.604790241E-1,-1.875590980E-1,6.795991925E-1
3.864822240E-1,-4.461409748E-1,7.030678540E-2,1.063200116E0,1.155153367E0
4.057949390E-1,-3.826617897E-1,1.937087253E-2,6.422254443E-1,7.478360765E-1
4.251278280E-1,-4.120337963E-1,1.432739496E-1,-4.328259230E-1,6.145222157E-1
4.444364880E-1,-3.255224824E-1,1.570367813E-1,5.004962534E-2,3.648703910E-1
4.637772130E-1,-1.831360608E-1,3.002929874E-2,1.019894242E0,1.036641134E0
4.830907660E-1,-2.194892764E-1,-1.867931103E-3,3.589166105E-1,4.207138753E-1
5.023964040E-1,-2.717213333E-1,5.472731218E-2,-5.874248743E-1,6.495348679E-1
5.217370090E-1,-2.035453916E-1,7.216843963E-2,-3.497695923E-2,2.187747650E-1
5.410496690E-1,-8.841254562E-2,8.976977551E-4,6.417582631E-1,6.478203859E-1
5.603267900E-1,-1.274180859E-1,1.919901115E-3,-1.077266112E-1,1.668654470E-1
5.796382780E-1,-1.443468779E-1,6.686419994E-2,-6.245790124E-1,6.445198097E-1
5.989750460E-1,-1.006965488E-1,3.079362027E-2,2.601067424E-1,2.806128283E-1
6.183689470E-1,-3.069441393E-2,-2.790644579E-2,8.726183772E-1,8.736038856E-1
6.376822910E-1,-4.307568073E-2,5.627981387E-3,1.505279541E-1,1.566711633E-1
6.570211710E-1,-2.458317392E-2,7.541575283E-2,-2.591332495E-1,2.710016775E-1
6.763345150E-1,4.280051216E-2,3.592033312E-2,5.416715145E-1,5.445458510E-1
6.956732670E-1,4.842085764E-2,3.719671443E-2,5.404752493E-1,5.439132928E-1
7.149867390E-1,5.070075393E-2,-3.606493026E-2,8.912964463E-1,8.934655007E-1
7.343060990E-1,-6.449484825E-2,1.129534002E-2,-4.887264073E-1,4.930929642E-1
7.536613610E-1,-2.557784691E-2,2.532269619E-2,5.361182988E-2,6.457316392E-2
7.729749610E-1,-2.204951830E-2,7.121132803E-4,1.073558405E-1,1.095991097E-1
7.923225160E-1,-3.388481215E-2,5.217493325E-2,-5.166670680E-1,5.203991385E-1
8.116322520E-1,-5.073421448E-2,2.081581578E-2,-4.858907759E-1,4.889755667E-1
8.309620760E-1,-3.042922355E-2,-3.400768340E-2,2.675046623E-1,2.713691296E-1
8.502829370E-1,1.163370069E-2,-4.568261653E-2,3.956343532E-1,3.984329126E-1
8.696225160E-1,-2.096838504E-2,2.337655984E-2,-3.191354275E-1,3.206767185E-1
8.889258350E-1,4.997688346E-3,7.530090213E-2,-5.277543664E-1,5.331227570E-1
9.082672270E-1,4.579513520E-2,1.640212722E-2,-2.514161170E-2,5.475696142E-2
9.275958040E-1,4.209763184E-2,-3.877044097E-2,2.199090868E-1,2.272341615E-1
9.469103620E-1,-1.180885956E-1,-7.821886800E-3,-4.047115147E-1,4.216604184E-1
9.662407020E-1,1.224399284E-1,3.335074335E-2,-3.526717126E-1,3.748081443E-1
9.855547500E-1,3.265699446E-1,5.491770431E-2,7.408773899E-1,8.115190631E-1
1.004868798E0,9.638498425E-1,-6.143159047E-2,3.121288300E0,3.267295672E0
1.024218302E0,1.430306673E0,-1.018208712E-1,8.565747261E0,8.684939309E0
1.043536184E0,-7.111032605E-1,-4.627656564E-2,9.078059196E0,9.105985292E0
1.062851856E0,1.886480808E0,-3.132071793E-1,6.416245461E0,6.695156039E0
1.082185349E0,3.043615818E0,-1.357079297E-1,-7.559924722E-1,3.139034646E0
1.101496162E0,3.440546095E-1,1.893774122E-1,-1.045815086E1,1.046552229E1
1.120817425E0,-4.525079131E-1,1.133322716E-1,-1.415405846E1,1.416174348E1
1.140158228E0,-8.560899496E-1,4.917509109E-2,-1.433652687E1,1.436214855E1
1.159469682E0,-8.205226064E-2,1.572540589E-2,-1.018633842E1,1.018668103E1
1.178785476E0,9.756627679E-1,7.330540568E-3,-3.394271374E0,3.531720506E0
1.198128068E0,1.603946447E0,-9.908153117E-2,5.334342003E0,5.571145839E0
1.217442663E0,1.648845792E0,-4.775709286E-2,1.094448853E1,1.106809840E1
1.236802166E0,1.534861445E0,-8.224265277E-2,1.332475281E1,1.341311302E1
1.256116448E0,1.729798794E0,-1.497550607E-1,1.334220791E1,1.345470707E1
1.275434224E0,1.754976392E0,-2.062773556E-1,8.777365685E0,8.953470882E0
1.294776727E0,2.379638433E0,-2.416853607E-1,8.695833206E0,9.018791828E0
1.314084525E0,8.280802369E-1,1.510707736E-1,-6.915130138E0,6.966172844E0
1.333430110E0,-1.507949531E-1,8.512012661E-2,-1.147948074E1,1.148078668E1
1.352748109E0,-7.332184315E-1,4.048218206E-2,-1.372061157E1,1.374024854E1
1.372057816E0,-2.927020192E-1,4.681913182E-2,-1.180606556E1,1.180978622E1
1.391396533E0,7.808670402E-1,7.100866735E-2,-6.505866528E0,6.552945509E0
1.410710561E0,1.741739750E0,-1.325092278E-2,1.573478460E0,2.347268073E0
1.430051347E0,1.749806523E0,-1.205392480E-1,9.293562889E0,9.457624636E0
1.449366246E0,1.492642403E0,-1.191571578E-1,1.256380463E1,1.265272170E1
1.468706036E0,1.387988567E0,-1.207678840E-1,1.254694843E1,1.262406480E1
1.488019474E0,1.584668994E0,-1.071634218E-1,1.028404236E1,1.040596882E1
1.507335694E0,1.625396967E0,-1.191335022E-1,4.210248470E0,4.514676098E0
1.526684305E0,1.063394189E0,6.227880344E-2,-4.003549099E0,4.142836135E0
1.545987017E0,1.132592186E-1,1.181641743E-1,-9.956280708E0,9.957626021E0
1.565320687E0,-6.090553999E-1,3.067576885E-2,-1.271522331E1,1.272983870E1
1.584635503E0,-5.363996029E-1,5.216636136E-2,-1.236308956E1,1.237483048E1
1.603975791E0,3.105385602E-2,1.053747386E-1,-8.383206367E0,8.383926120E0
1.623290607E0,9.994481802E-1,4.427529499E-2,-1.610252738E0,1.895724359E0
1.642630895E0,1.414306521E0,-1.143780127E-1,6.323514462E0,6.480754617E0
1.661950499E0,1.357005239E0,-1.507951468E-1,1.123431587E1,1.131698085E1
1.681287689E0,1.370903611E0,-1.028078571E-1,1.234298420E1,1.241930776E1
1.700602633E0,1.626347780E0,-8.033555746E-2,1.108930206E1,1.120821490E1
1.719951251E0,1.828970194E0,-1.129829064E-1,6.601150036E0,6.850772139E0
1.739262668E0,1.466923952E0,-3.444740549E-2,-9.946204424E-1,1.772659677E0
1.758460252E0,6.007537842E-1,1.228328496E-1,-7.681725502E0,7.706159855E0
1.777800412E0,-2.900320888E-1,6.052536890E-2,-1.132833576E1,1.133220954E1
1.797115100E0,-7.210002542E-1,5.027474090E-2,-1.231047153E1,1.233166973E1
1.816455388E0,-3.268305957E-1,7.154614478E-2,-9.886561394E0,9.892220847E0
1.835766748E0,-6.057363153E-1,8.019547164E-2,-9.877609253E0,9.896489901E0
1.855107036E0,2.136525810E-1,7.531955093E-2,-4.368409634E0,4.374279734E0
1.874421596E0,1.478768945E0,-1.178837866E-1,9.395410538E0,9.511802844E0
1.893761756E0,1.260844111E0,-7.527153194E-2,1.164040947E1,1.170873718E1
1.913076572E0,1.273003459E0,-1.277675331E-1,1.141742516E1,1.148888417E1
1.932419420E0,1.452496290E0,-1.598275453E-1,8.526066780E0,8.650381787E0
1.951734236E0,1.372653961E0,-3.761107475E-2,2.013602495E0,2.437250192E0
1.971049052E0,6.971874833E-1,1.509157121E-1,-5.220489979E0,5.269000053E0
1.990389212E0,-1.922226697E-1,4.357703030E-2,-9.751998901E0,9.753990521E0
2.009729372E0,-6.646136642E-1,-1.828861423E-2,-1.166973209E1,1.168865659E1
2.029044188E0,-3.677268326E-1,6.422117352E-2,-1.074551392E1,1.075199594E1
2.048359004E0,3.866156042E-1,8.753547817E-2,-6.656132221E0,6.667925482E0
2.067699164E0,1.204251885E0,6.698572543E-3,1.325198859E-1,1.211539927E0
2.087013980E0,1.401951909E0,-1.299946606E-1,7.156344414E0,7.293533652E0
2.106328796E0,1.273975611E0,-9.157218039E-2,1.074537754E1,1.082102296E1
2.125669740E0,1.167015791E0,-1.070037112E-1,1.118532467E1,1.124654896E1
2.144984684E0,1.475520372E0,-9.509301931E-2,9.524005890E0,9.638095831E0
2.164324716E0,1.607814670E0,-1.072514579E-1,4.719548702E0,4.987054325E0
2.183639660E0,1.161463737E0,3.002625890E-2,-2.333630085E0,2.606861900E0
2.202979948E0,2.682243586E-1,9.665933251E-2,-8.063097000E0,8.068136127E0
2.222294892E0,-5.049140453E-1,5.787429400E-3,-1.083984089E1,1.085159538E1
2.241634404E0,-6.476706266E-1,2.301375754E-2,-1.097763729E1,1.099675076E1
2.260949348E0,-1.476273984E-1,1.172422916E-1,-8.138948441E0,8.141131452E0
2.280264036E0,5.597585440E-1,3.514705598E-2,-2.629608154E0,2.688755100E0
2.299604324E0,1.033789635E0,-1.207226291E-1,4.418717861E0,4.539643433E0
2.318919524E0,1.150672913E0,-1.097419262E-1,9.351265907E0,9.422434161E0
2.338234212E0,1.184126377E0,-3.838145360E-2,1.084992313E1,1.091441526E1
2.357574500E0,1.303637624E0,-1.019109264E-1,1.018508625E1,1.026868243E1
2.376889188E0,1.482613444E0,-1.556311846E-1,6.744438171E0,6.907228818E0
2.396229476E0,1.749446869E0,-1.678800285E-1,6.716010094E0,6.942156699E0
2.415544420E0,1.533929348E0,-3.998007253E-2,3.210358322E-1,1.567673964E0
2.434858156E0,-3.104558289E-1,4.549282044E-2,-9.534102440E0,9.539264214E0
2.454198444E0,-6.712461710E-1,-2.073138207E-2,-1.077249050E1,1.079340321E1
2.473513388E0,-2.661050856E-1,6.288006902E-2,-9.288872719E0,9.292896330E0
2.492853676E0,4.916640818E-1,9.296712279E-2,-4.961630344E0,4.986797783E0
2.512168620E0,1.130245924E0,-2.895568497E-2,1.573343039E0,1.937447444E0
2.531505189E0,1.231070161E0,-1.654862463E-1,7.463110924E0,7.565774521E0
2.550820389E0,1.109430075E0,-8.823692054E-2,1.014133358E1,1.020221876E1
2.570160421E0,1.093087912E0,-3.756236285E-2,1.033751678E1,1.039521550E1
2.589475109E0,1.203431249E0,-8.785751462E-2,8.197648048E0,8.285976058E0
2.608790309E0,1.132193685E0,-1.203860790E-1,2.988939524E0,3.198455068E0
2.628131575E0,6.662097573E-1,3.323579207E-2,-3.429059744E0,3.493335195E0
2.647446391E0,-6.903502345E-2,1.112343594E-1,-8.048527718E0,8.049592371E0
2.666786551E0,-5.608427525E-1,4.770978168E-2,-1.017384338E1,1.018940185E1
2.686151698E0,-4.859896004E-1,-2.092348179E-3,-9.888105392E0,9.900041339E0
2.705490380E0,-8.095332235E-2,4.119244590E-2,-6.716745853E0,6.717359981E0
2.724830668E0,8.512221575E-1,5.529242754E-2,-1.019502640E0,1.329293815E0
2.744145484E0,9.786078334E-1,-5.923112854E-2,5.228433609E0,5.319558217E0
2.763485772E0,9.907789230E-1,-1.853080243E-1,9.005247116E0,9.061482084E0
2.782800716E0,1.030079246E0,-1.312081516E-1,1.005673122E1,1.011019890E1
2.802141004E0,1.263819218E0,-1.980828680E-2,9.089298248E0,9.176762721E0
2.821455692E0,1.344007373E0,-6.849543005E-2,5.191626072E0,5.363210672E0
2.840767044E0,9.907227755E-1,-4.894175753E-2,-1.005287051E0,1.412277936E0
2.860107204E0,3.089771569E-1,4.486052692E-2,-6.332120419E0,6.339812958E0
2.879421892E0,-3.168240488E-1,6.242249534E-2,-9.179871559E0,9.185549297E0
2.898762180E0,-6.229074597E-1,5.274088681E-2,-9.888206482E0,9.907947453E0
2.918076868E0,-3.483846486E-1,-4.659146070E-3,-8.016946793E0,8.024514281E0
2.937411846E0,2.859443128E-1,1.689957641E-2,-3.400378466E0,3.412421934E0
2.956726406E0,8.447142839E-1,-1.880080812E-2,2.847066402E0,2.969795076E0
2.976040966E0,6.464226246E-1,-2.165207081E-2,2.874958038E0,2.946814338E0
2.995380998E0,8.851158619E-1,-6.536477059E-2,7.626603127E0,7.678071235E0
3.014721030E0,1.000288367E0,-1.419191808E-1,9.434615135E0,9.488555244E0
3.034031454E0,1.082994819E0,-3.379794210E-2,6.816678047E0,6.902254681E0
3.053346142E0,9.074735641E-1,2.033547498E-2,1.369536519E0,1.643031369E0
3.072686046E0,3.966548443E-1,1.680278219E-2,-4.277403355E0,4.295788270E0
3.092000734E0,-1.881291568E-1,-3.355080634E-2,-7.912397861E0,7.914705184E0
3.111340510E0,-5.325863361E-1,3.584214300E-2,-9.506860733E0,9.521834585E0
3.130646689E0,-3.867239654E-1,1.323811412E-1,-8.784676552E0,8.794181162E0
3.149986465E0,1.806689948E-1,5.074466765E-2,-5.330636501E0,5.333938678E0
3.169300769E0,8.074440360E-1,-8.766166866E-2,3.790411949E-1,8.962826936E-1
3.188571338E0,1.081433415E0,-1.001571789E-1,5.877332687E0,5.976836054E0
3.207885770E0,9.826133251E-1,-2.116686292E-2,8.647323608E0,8.702998482E0
3.227225546E0,9.233307838E-1,-5.394311622E-2,9.272745132E0,9.318758066E0
3.246537328E0,9.916566014E-1,-1.586945951E-1,7.962996960E0,8.026075465E0
3.265851504E0,9.830666780E-1,-1.339032799E-1,3.676110506E0,3.807642136E0
3.285191408E0,7.911486626E-1,8.270233124E-2,-2.221383572E0,2.359512843E0
3.304505584E0,8.465394378E-2,1.426237673E-1,-6.604650974E0,6.606733105E0
3.323845360E0,-4.321160018E-1,-1.825414225E-2,-8.757773399E0,8.768446406E0
3.343162930E0,-5.561617613E-1,-4.300152883E-2,-8.974906921E0,8.992225491E0
3.362502706E0,-2.436849475E-1,5.330675468E-2,-6.731675625E0,6.736295769E0
3.381817138E0,3.448517025E-1,8.893919736E-2,-1.934002042E0,1.966518949E0
3.401156914E0,7.363079190E-1,-2.245768718E-2,3.766813517E0,3.838168543E0
3.420471474E0,8.924180865E-1,-1.172094345E-1,7.649918079E0,7.702687499E0
3.439785906E0,9.330679178E-1,-1.064460129E-1,9.021168709E0,9.069919039E0
3.459125682E0,1.063377619E0,-9.344361722E-2,8.487349510E0,8.554215649E0
3.478440242E0,1.143820167E0,-7.049585134E-2,5.360648632E0,5.481774165E0
3.497780018E0,9.018153548E-1,-2.019299939E-2,2.265513316E-2,9.023258538E-1
3.517094194E0,3.341392279E-1,3.172107786E-2,-4.926475048E0,4.937895468E0
3.536434219E0,-2.517758012E-1,2.190615050E-2,-7.872261524E0,7.876317188E0
3.555748651E0,-2.280458510E-1,1.924489252E-2,-7.872368813E0,7.875694636E0
3.575088555E0,-6.501764655E-1,2.349857241E-2,-8.919620514E0,8.943316596E0
3.594402987E0,2.751342654E-1,1.626184955E-2,-3.826551199E0,3.836464178E0
3.613742763E0,7.778625488E-1,-7.063178718E-2,1.600413203E0,1.780837279E0
3.633056939E0,9.662868977E-1,-3.967420384E-2,6.197103500E0,6.272110985E0
3.652371627E0,9.163364172E-1,-2.665976807E-2,8.372365952E0,8.422404336E0
3.671751941E0,8.739683032E-1,-1.042699963E-1,8.715376854E0,8.759708131E0
3.691066373E0,9.114001393E-1,-1.869581789E-1,6.747791767E0,6.811629563E0
3.710406149E0,8.118778467E-1,-6.236653775E-2,2.069784880E0,2.224195286E0
3.729720837E0,4.320042729E-1,1.653518528E-1,-3.127593994E0,3.161615587E0
3.749053151E0,-1.693713963E-1,7.401034236E-2,-6.657014847E0,6.659580383E0
3.768392799E0,-5.239806771E-1,-4.441951960E-2,-8.376130104E0,8.392620828E0
3.787707231E0,-4.123585224E-1,-1.424564328E-2,-8.157619476E0,8.168047380E0
3.807046879E0,5.502465740E-2,1.056571454E-1,-5.426411629E0,5.427719071E0
3.826361311E0,6.047871113E-1,1.529492158E-2,-4.985841811E-1,7.839563573E-1
3.845672279E0,8.594449162E-1,-7.962010056E-2,4.556166649E0,4.637201684E0
3.865011927E0,8.586318493E-1,-1.036537364E-1,7.513067245E0,7.562682870E0
3.884326231E0,8.834515810E-1,-5.044223368E-2,8.477760315E0,8.523816696E0
3.903683347E0,9.933225513E-1,-8.057759702E-2,7.559166431E0,7.624577338E0
3.923006856E0,1.008539438E0,-1.046706438E-1,3.986819506E0,4.113737657E0
3.942321399E0,7.079954147E-1,-1.098630950E-2,-1.208173990E0,1.400379448E0
3.961663813E0,1.375998855E-1,1.005272195E-1,-5.417397022E0,5.420076563E0
3.980970029E0,-3.335466683E-1,4.838318378E-2,-7.667612553E0,7.675016389E0
4.000287168E0,-5.211215019E-1,-1.498971321E-2,-8.211487770E0,8.228020643E0
4.019626816E0,-3.281967640E-1,-2.824055962E-2,-6.527860641E0,6.536166705E0
4.038942345E0,1.636944413E-1,3.019274957E-2,-2.389110565E0,2.394902245E0
4.058279165E0,5.745800138E-1,-1.460342947E-2,2.705366373E0,2.765748120E0
4.077593112E0,7.876303792E-1,-5.160219595E-2,6.476264954E0,6.524188237E0
4.096900450E0,8.413829803E-1,-1.228610203E-1,8.055744171E0,8.100495929E0
4.116245088E0,9.080903530E-1,-8.509610593E-2,7.898413181E0,7.950899334E0
4.135471781E0,9.476097226E-1,-1.143308878E-1,5.418905735E0,5.502324518E0
4.154811429E0,5.854057074E-1,-1.324135996E-2,7.671246529E-1,9.650675670E-1
4.174125733E0,2.274158597E-1,6.920868903E-2,-3.894272327E0,3.901520829E0
4.193439909E0,-2.277691513E-1,5.974528193E-2,-6.766217232E0,6.770313428E0
4.212779557E0,-4.952721894E-1,-7.309969049E-3,-7.898853779E0,7.914369147E0
4.232093861E0,-3.362579048E-1,-1.561552193E-2,-7.147885799E0,7.155807755E0
4.251435068E0,1.116082445E-1,1.426112279E-2,-4.045187473E0,4.046751966E0
4.270749372E0,6.083339453E-1,3.093866259E-2,7.500402331E-1,9.662234427E-1
4.290089020E0,8.119974136E-1,-5.816825479E-2,5.095170498E0,5.159795127E0
4.309440465E0,7.907006145E-1,-1.353447288E-1,7.417716980E0,7.460968493E0
4.328780113E0,8.018432856E-1,-1.359145045E-1,7.914909363E0,7.956583163E0
4.348095177E0,8.033525944E-1,-3.204649687E-2,6.377974510E0,6.428449364E0
4.367434825E0,6.629430652E-1,-2.298176475E-2,2.550794840E0,2.635635784E0
4.386749129E0,3.377841711E-1,-2.193927765E-2,-2.114405870E0,2.141329415E0
4.406063305E0,-1.211385727E-1,1.700103842E-2,-5.714069366E0,5.715378580E0
4.425402953E0,-4.031005502E-1,8.772568405E-2,-7.462329388E0,7.473723686E0
4.444741323E0,-4.883367121E-1,5.227109790E-2,-7.419196129E0,7.435433828E0
4.464080971E0,-2.438591570E-1,-3.753513470E-2,-5.214241028E0,5.220075255E0
4.483395275E0,2.265787721E-1,-4.988482967E-2,-1.018012881E0,1.044115254E0
4.502734923E0,5.722675920E-1,1.984154247E-2,3.489055157E0,3.535730444E0
4.522049099E0,6.948084831E-1,-1.126169111E-3,6.475891590E0,6.513058574E0
4.541389190E0,7.246521711E-1,-1.602242887E-1,7.746406078E0,7.781876363E0
4.560703494E0,8.441845775E-1,-2.089732885E-1,7.080475330E0,7.133684065E0
4.580017798E0,9.033563137E-1,-2.815734409E-2,3.963448048E0,4.065189527E0
4.599357446E0,6.436751485E-1,1.394632906E-1,-5.494235754E-1,8.576910699E-1
4.618690538E0,1.504765600E-1,3.419952840E-2,-4.352023602E0,4.354758573E0
4.638033412E0,-2.872094810E-1,-8.803911507E-2,-6.685600281E0,6.692345724E0
4.657347716E0,-4.729628861E-1,-2.032590332E-3,-7.461141586E0,7.476117428E0
4.676690708E0,-3.432192504E-1,1.336874515E-1,-6.145801067E0,6.156828936E0
4.695994979E0,2.422024906E-1,4.513540119E-2,-2.622860432E0,2.634406213E0
4.715342413E0,-1.212621555E-1,6.140089408E-2,-2.593264818E0,2.596824406E0
4.734653440E0,7.532145977E-1,-1.039963290E-1,5.441710472E0,5.494575537E0
4.753986771E0,7.488050461E-1,2.261436917E-2,7.129757881E0,7.169007452E0
4.773302537E0,7.188585997E-1,-3.834435344E-2,7.291490555E0,7.326940868E0
4.792640071E0,7.006503344E-1,-1.534180939E-1,5.274341583E0,5.322887106E0
4.811956302E0,5.356639624E-1,-1.113366410E-1,1.150699854E0,1.274143588E0
4.831297814E0,2.073030472E-1,9.530416876E-2,-3.059061527E0,3.067558453E0
4.850609716E0,-2.358460426E-1,1.003989279E-1,-5.796549320E0,5.802214002E0
4.869932159E0,-4.394635856E-1,-2.033132501E-2,-7.053019524E0,7.066726683E0
4.889261364E0,-3.439641297E-1,-5.621945858E-2,-6.656308174E0,6.665426502E0
4.908579235E0,4.052893072E-2,2.675971203E-2,-4.045023441E0,4.045314984E0
4.927890948E0,4.739188254E-1,2.786865272E-2,2.150067836E-1,5.211560533E-1
4.947232524E0,6.676489711E-1,-4.794966429E-2,4.173276424E0,4.226616902E0
4.966551621E0,6.800913215E-1,-1.242830753E-1,6.452153206E0,6.489087107E0
4.985864135E0,6.864658594E-1,-8.395007998E-2,7.169719696E0,7.202996842E0
5.005193889E0,8.179711103E-1,-3.453616425E-2,6.059683800E0,6.114739343E0
5.024511255E0,7.433115840E-1,-7.104928792E-2,2.782174587E0,2.880634574E0
5.043825973E0,4.834246635E-1,-7.975807041E-2,-1.466556668E0,1.546237115E0
5.063178275E0,3.422352299E-2,4.481957108E-2,-4.870280743E0,4.870607206E0
5.082491640E0,-3.385687768E-1,1.126608402E-1,-6.630288601E0,6.639883148E0
5.101795885E0,-4.614432156E-1,5.251165107E-2,-6.791439056E0,6.807299888E0
5.121139209E0,-2.838196158E-1,-5.240049213E-2,-4.996360302E0,5.004689366E0
5.140461039E0,1.326712966E-1,-8.001870662E-2,-1.335211396E0,1.344170428E0
5.159759319E0,4.526754618E-1,1.764150523E-2,2.758089781E0,2.795046607E0
5.179073623E0,6.085540056E-1,-3.104155418E-3,5.592580795E0,5.625593974E0
5.198413655E0,6.743651628E-1,-9.576265514E-2,6.906538963E0,6.940044619E0
5.217727959E0,7.442531586E-1,-1.436294317E-1,6.546173096E0,6.589910802E0
5.237042519E0,7.618695498E-1,-4.139664397E-2,3.992702723E0,4.064951897E0
5.256393474E0,5.754733682E-1,5.791880935E-2,-7.540072547E-4,5.783811498E-1
5.275708973E0,1.851242632E-1,4.874782637E-3,-3.627172232E0,3.631896633E0
5.295023690E0,2.877973318E-1,6.576559972E-3,-3.631124496E0,3.642517764E0
5.314358018E0,-2.207083404E-1,-5.147540569E-2,-5.921581745E0,5.925916997E0
5.333675147E0,-2.639832497E-1,9.177684039E-2,-5.768270016E0,5.775036720E0
5.353000936E0,1.154149175E-1,1.752401143E-2,-2.758796453E0,2.761265211E0
5.372343660E0,4.955953956E-1,-9.158498049E-2,1.299087167E0,1.393423866E0
5.391658348E0,6.589508057E-1,-7.917111367E-2,4.615372181E0,4.662847263E0
5.410978464E0,6.690199375E-1,-3.190325946E-2,6.370069027E0,6.405184221E0
5.430275382E0,6.463583708E-1,-8.084509522E-2,6.711888313E0,6.743423448E0
5.449608168E0,5.934892297E-1,-1.437895894E-1,5.027157784E0,5.064111007E0
5.468941582E0,4.716210663E-1,-5.838051438E-2,1.411806703E0,1.489641863E0
5.488281998E0,2.066110820E-1,6.930732727E-2,-2.360836506E0,2.370873394E0
5.507597070E0,-1.699798107E-1,4.614775255E-2,-5.003940582E0,5.007039455E0
5.526937614E0,-4.088386893E-1,-3.510320932E-2,-6.384031773E0,6.397205873E0
5.546257443E0,-3.307654262E-1,-1.750156051E-3,-6.191966534E0,6.200794980E0
5.565572643E0,-1.967293024E-2,5.411709845E-2,-3.935757399E0,3.936178602E0
5.584927270E0,2.250721157E-1,1.613284275E-2,-1.694089025E-1,2.821650264E-1
5.604248898E0,4.326859713E-1,-6.750602275E-2,3.445103884E0,3.472825216E0
5.623589442E0,5.437688231E-1,-1.129691377E-1,5.728302956E0,5.755163013E0
5.642904514E0,6.729632020E-1,-9.433206916E-2,6.626260757E0,6.661014160E0
5.662240698E0,7.493684292E-1,-3.783719987E-2,5.703886986E0,5.753026286E0
5.681562299E0,6.794091463E-1,-4.656580836E-2,2.770794630E0,2.853255692E0
5.700878899E0,4.166528285E-1,-3.828093410E-2,-1.013725758E0,1.096679042E0
5.720203210E0,7.971111685E-3,-8.376968093E-3,-4.105033398E0,4.105049684E0
5.739518282E0,-3.179624975E-1,1.683995314E-2,-5.893166065E0,5.901761602E0
5.758873316E0,-4.302893281E-1,5.114414543E-2,-6.258992672E0,6.273974330E0
5.778194276E0,-2.724987566E-1,1.443849877E-2,-4.805537701E0,4.813279198E0
5.797535272E0,8.227003366E-2,-4.205045477E-2,-1.542304039E0,1.545069043E0
5.816848008E0,3.293230832E-1,-4.053151608E-2,2.152285814E0,2.177712268E0
5.836182467E0,4.771421552E-1,-4.526789486E-2,4.930315018E0,4.953556297E0
5.855500678E0,4.276402891E-1,-4.472792521E-2,4.937381744E0,4.956068532E0
5.874840214E0,6.495854259E-1,-1.205413938E-1,6.158693790E0,6.194029436E0
5.894070208E0,6.285665035E-1,-1.340241823E-2,3.871769905E0,3.922483610E0
5.913385536E0,3.443866670E-1,4.525435343E-2,2.998471558E-1,4.588664836E-1
5.932726208E0,-1.406068727E-2,-5.137399584E-2,-2.991605759E0,2.992079880E0
5.952041536E0,-2.720662951E-1,-6.213150918E-2,-5.195447445E0,5.202937108E0
5.971382208E0,-3.444869518E-1,5.482338741E-2,-6.206027508E0,6.215822897E0
5.990697536E0,-2.555486858E-1,1.174390316E-1,-5.453750610E0,5.460997416E0
6.010012736E0,6.016985327E-2,2.659880091E-3,-2.731499672E0,2.732163601E0
6.029353536E0,3.883807659E-1,-9.441810846E-2,9.421965480E-1,1.023468970E0
6.048667011E0,5.732028484E-1,-8.267186582E-2,3.996131420E0,4.037878462E0
6.068047102E0,5.618174076E-1,-3.473895043E-2,5.721811295E0,5.749432153E0
6.087362302E0,5.395207405E-1,-5.713163689E-2,6.174437046E0,6.198227125E0
6.106726207E0,5.684328675E-1,-9.290128946E-2,4.820810795E0,4.855096631E0
6.126041407E0,4.687613249E-1,-4.617373645E-2,1.658658981E0,1.724244417E0
6.145359695E0,1.929104626E-1,4.157145694E-2,-1.854011536E0,1.864484220E0
6.164700495E0,-1.238850504E-1,-2.320708521E-2,-4.459875107E0,4.461655751E0
6.184015951E0,-3.772218525E-1,-4.055185243E-2,-5.810426712E0,5.822799958E0
6.203356623E0,-4.089003205E-1,9.450050071E-3,-5.711263657E0,5.725890440E0
6.222690801E0,-1.483410150E-1,7.057059556E-2,-3.805461407E0,3.809005354E0
6.242001230E0,1.606290042E-1,1.200877223E-2,-4.039708376E-1,4.349003624E-1
6.261341200E0,3.318745196E-1,-8.410762995E-2,2.907717943E0,2.927804370E0
6.280666685E0,5.009144545E-1,-1.147127301E-1,5.189595222E0,5.214975827E0
6.300000530E0,6.043239236E-1,-8.394269645E-2,6.116544247E0,6.146898999E0
6.319319845E0,6.690726280E-1,-4.198724404E-2,5.334249973E0,5.376210923E0
6.338659510E0,6.230977178E-1,-2.167120203E-2,2.731469870E0,2.801722337E0
6.357970703E0,4.170307517E-1,-5.300534889E-2,-6.295943856E-1,7.570424726E-1
6.377252873E0,2.212049067E-2,-5.138570815E-2,-3.530613661E0,3.531056871E0
6.396593673E0,-3.161424994E-1,1.415212918E-2,-5.333014965E0,5.342395996E0
6.415909129E0,-3.725320399E-1,6.552185863E-2,-5.809641838E0,5.821942246E0
6.435249929E0,-4.916587174E-1,6.381107122E-2,-5.804709911E0,5.825843913E0
6.454560972E0,1.447858214E-1,-4.926593229E-2,-1.581101656E0,1.588481197E0
6.473893949E0,3.795983791E-1,-6.957099587E-2,1.780591011E0,1.821932875E0
6.493234877E0,5.332806110E-1,-3.267937154E-2,4.368895054E0,4.401442961E0
6.512561154E0,5.697166324E-1,-4.835944995E-2,5.707078457E0,5.735648193E0
6.531906660E0,5.809826851E-1,-1.106323376E-1,5.662725925E0,5.693526614E0
6.551216603E0,4.905141592E-1,-7.010173053E-2,3.761394024E0,3.793890272E0
6.570549196E0,2.866402864E-1,2.885330003E-3,5.193430781E-1,5.932016620E-1
6.589864268E0,2.759769373E-2,1.327192690E-2,-2.566819429E0,2.567002096E0
6.609211828E0,-2.432052195E-1,-2.463190071E-2,-4.662037849E0,4.668442183E0
6.628556134E0,-3.549680114E-1,-3.412958540E-5,-5.591385841E0,5.602642048E0
6.647870092E0,-2.635813355E-1,4.933355376E-2,-5.016425610E0,5.023587843E0
6.667177735E0,-5.317081511E-2,3.203555197E-2,-2.640907526E0,2.641636987E0
6.686522955E0,3.409825265E-1,-4.451093450E-2,6.542621851E-1,7.391274001E-1
6.705840264E0,4.398433268E-1,-8.531790972E-2,3.486913681E0,3.515580794E0
6.725173863E0,4.330685735E-1,-8.990906924E-2,5.174046516E0,5.192917233E0
6.744493103E0,5.531917214E-1,-2.951059118E-2,5.672706127E0,5.699691813E0
6.763833330E0,6.332144141E-1,-4.332755879E-2,4.492895603E0,4.537504675E0
6.783146415E0,5.081610084E-1,-6.599590182E-2,1.660625815E0,1.737889861E0
6.802464794E0,2.500369251E-1,-5.552124232E-2,-1.587319970E0,1.607851287E0
6.821809075E0,-1.075456887E-1,2.215331420E-3,-3.980994463E0,3.982447476E0
6.841118200E0,-3.056635261E-1,2.664409205E-2,-5.236554146E0,5.245535189E0
6.860445737E0,-3.492744863E-1,3.550865874E-2,-5.260179043E0,5.271881741E0
6.879779307E0,-2.145908624E-1,1.432159450E-2,-3.518632650E0,3.525199296E0
6.899097030E0,4.120219499E-2,-4.413580149E-2,-4.736711979E-1,4.775039199E-1
6.918438289E0,2.906036079E-1,-8.668096364E-2,2.535048008E0,2.553122098E0
6.937760758E0,4.692122042E-1,-5.132361501E-2,4.583423138E0,4.607663385E0
6.957084044E0,5.373620391E-1,-4.717884585E-2,5.443330288E0,5.469993458E0
6.976399417E0,5.958417058E-1,-4.240052029E-2,4.990986824E0,5.026606671E0
6.995733935E0,7.018619180E-1,-4.444935545E-2,4.978487015E0,5.027913966E0
7.015048623E0,6.982945800E-1,-9.469110519E-2,2.760328293E0,2.848858370E0
7.034392198E0,-6.534507871E-2,-2.702536993E-3,-3.251376867E0,3.252034566E0
7.053692810E0,-3.139639199E-1,5.462142080E-2,-4.825949192E0,4.836459702E0
7.073027853E0,-3.397608101E-1,5.289265886E-2,-5.140403748E0,5.151891471E0
7.092343477E0,-1.755448580E-1,-1.837951876E-2,-4.141147614E0,4.144907401E0
7.111677940E0,1.137671322E-1,-5.337332562E-2,-1.635284662E0,1.640105972E0
7.130999480E0,3.469586968E-1,-1.908491552E-2,1.437896013E0,1.479286827E0
7.150296670E0,4.638804197E-1,-4.811025038E-2,3.928102493E0,3.955690690E0
7.169632690E0,4.925908744E-1,-1.045357138E-1,5.224096775E0,5.248310261E0
7.188848836E0,4.954918623E-1,-5.957027525E-2,5.208227634E0,5.232083323E0
7.208188356E0,4.669561982E-1,-4.977200646E-3,3.514175177E0,3.545067000E0
7.227502532E0,3.055029511E-1,-1.223849878E-2,6.291006207E-1,6.994636696E-1
7.246842180E0,-2.685735235E-3,-5.635078251E-2,-2.237895250E0,2.238606213E0
7.266166262E0,-2.468758523E-1,-5.407722294E-2,-4.210481167E0,4.218059232E0
7.285480054E0,-3.336742818E-1,3.919579461E-2,-5.099236012E0,5.110291845E0
7.304835980E0,-2.180148661E-1,8.892301470E-2,-4.606163979E0,4.612177835E0
7.324175244E0,-9.649459273E-2,1.568687893E-2,-2.531742096E0,2.533628885E0
7.343489164E0,1.053643078E-1,-1.007878408E-1,4.732430577E-1,4.951957369E-1
7.362824325E0,2.791768909E-1,-1.184642836E-1,3.084595442E0,3.099468110E0
7.382137861E0,4.332645833E-1,-5.245893076E-2,4.705348492E0,4.725544896E0
7.401477125E0,5.308791399E-1,-3.284929320E-2,5.205337524E0,5.232442114E0
7.420790789E0,5.779227018E-1,-5.961765349E-2,4.246254444E0,4.285816809E0
7.440104581E0,4.560058415E-1,-8.224035800E-2,1.634425044E0,1.698837846E0
7.459441660E0,2.304100543E-1,-1.806928590E-2,-1.353584409E0,1.373173712E0
7.478755452E0,-7.197085768E-2,4.035981745E-2,-3.556594133E0,3.557551201E0
7.498069116E0,-3.246326745E-1,-1.491609029E-3,-4.689863682E0,4.701086040E0
7.517408252E0,-3.433786631E-1,-4.344777204E-3,-4.689024925E0,4.701582982E0
7.536747250E0,-1.962566823E-1,1.122985408E-2,-3.354562521E0,3.360317322E0
7.556087934E0,1.087505817E-1,3.296165913E-2,-6.247037649E-1,6.349550802E-1
7.575416397E0,2.811138928E-1,-3.501211852E-2,2.231706142E0,2.249614006E0
7.594737473E0,4.277080595E-1,-1.183991209E-1,4.203322887E0,4.226686153E0
7.614076279E0,3.469038010E-1,-1.185829639E-1,4.213799000E0,4.229717033E0
7.633387081E0,4.558078647E-1,-4.704875126E-2,4.588021755E0,4.610847864E0
7.652739893E0,4.090876877E-1,4.551431537E-2,2.510947466E0,2.544460938E0
7.672039200E0,2.190342695E-1,-1.529434114E-3,-2.767772079E-1,3.529645494E-1
7.691359394E0,-7.379248738E-2,-7.035757601E-2,-2.772476435E0,2.774350573E0
7.710698157E0,-3.049641550E-1,-5.537053943E-2,-4.319920540E0,4.331025572E0
7.730018210E0,-2.994554937E-1,6.340262294E-2,-4.798122406E0,4.807876050E0
7.749353395E0,-1.895488203E-1,6.090655550E-2,-3.908130407E0,3.913198391E0
7.768669596E0,6.575663388E-2,-4.068966582E-2,-1.634753466E0,1.636581338E0
7.788004672E0,2.927266955E-1,-8.649477363E-2,1.232212543E0,1.269455795E0
7.807325853E0,4.103507698E-1,-3.401233256E-2,3.556923389E0,3.580677114E0
7.826659578E0,4.426155686E-1,-3.753833473E-2,4.811235905E0,4.831698314E0
7.845975461E0,4.261241257E-1,-1.296121031E-1,4.809802532E0,4.830381089E0
7.865289013E0,3.824538887E-1,-1.284968406E-1,3.335836887E0,3.360147341E0
7.884614876E0,3.617667854E-1,-1.531110238E-2,7.157914639E-1,8.021639836E-1
7.903930769E0,1.412296891E-1,7.883898169E-2,-1.955923915E0,1.962600258E0
7.923272958E0,-1.152564958E-1,-2.898740955E-2,-3.829537392E0,3.831381078E0
7.942584026E0,-3.402516544E-1,-7.255519927E-2,-4.715789318E0,4.728604904E0
7.961931427E0,-3.626864851E-1,-3.276348487E-2,-4.301840782E0,4.317227009E0
7.981270563E0,-1.518511027E-1,6.773607433E-2,-2.409078121E0,2.414809377E0
8.000584238E0,1.367892325E-1,4.517782852E-2,2.807725072E-1,3.155717527E-1
8.019901153E0,3.244179785E-1,-1.052804887E-1,2.767465115E0,2.788403516E0
8.039234382E0,4.017439187E-1,-1.469844282E-1,4.387215137E0,4.408022148E0
8.058554649E0,4.516294599E-1,-6.361427903E-2,4.820118427E0,4.841648232E0
8.077887363E0,4.814954698E-1,3.945860546E-3,3.863467693E0,3.893357943E0
8.097200976E0,4.338019192E-1,-4.065676033E-2,1.607968330E0,1.665952949E0
8.116510964E0,2.062114328E-1,-8.383034915E-2,-9.978193045E-1,1.022347322E0
8.135856892E0,-1.489780545E-1,-5.714692548E-2,-3.224021912E0,3.227968017E0
8.155177919E0,-3.307864070E-2,-5.905047432E-2,-3.230246782E0,3.230955807E0
8.174506068E0,-2.699677944E-1,8.866121620E-2,-4.442187786E0,4.451266758E0
8.193822591E0,-1.092453822E-1,-5.848816410E-2,-3.005196095E0,3.007749821E0
8.213159600E0,1.379791647E-1,-1.340792477E-1,-5.935608149E-1,6.239630882E-1
8.232482290E0,2.986401916E-1,-2.424001507E-2,1.865097284E0,1.889010699E0
8.251816733E0,4.236258268E-1,6.852369010E-2,3.791855335E0,3.816060956E0
8.271135532E0,4.459921718E-1,-6.479513645E-2,4.740898609E0,4.762271207E0
8.290474848E0,4.010237157E-1,-1.842883676E-1,4.284964561E0,4.307633169E0
8.309790532E0,3.118109107E-1,-8.053272218E-2,2.305377722E0,2.327762446E0
8.329118518E0,1.556049734E-1,7.720059156E-2,-2.215019017E-1,2.814887770E-1
8.348431521E0,-3.183254227E-2,1.113574579E-2,-2.403038740E0,2.403275370E0
8.367748874E0,-2.297074497E-1,-8.294239640E-2,-3.950500011E0,3.958041851E0
8.387091655E0,-3.045891821E-1,-3.376694024E-2,-4.524209976E0,4.534577233E0
8.406407282E0,-1.864122897E-1,8.701517433E-2,-3.620761395E0,3.626600923E0
8.425716417E0,-8.204562217E-2,2.074763877E-3,-1.421950459E0,1.424316994E0
8.445059284E0,1.305537224E-1,-1.051587984E-1,1.172387362E0,1.184311941E0
8.464370506E0,3.277181983E-1,-9.514620155E-2,3.165390730E0,3.183732164E0
8.483684296E0,4.200471938E-1,-2.691979334E-2,4.316747189E0,4.337219226E0
8.503031086E0,4.788573682E-1,-2.385976166E-2,4.363801956E0,4.390061637E0
8.522345262E0,4.190130234E-1,-9.322158247E-2,3.078985691E0,3.108764234E0
8.541658641E0,2.735770941E-1,-8.439269662E-2,7.435842156E-1,7.967961091E-1
8.560993543E0,1.030624360E-1,-1.910381764E-2,-1.750047565E0,1.753183761E0
8.580309723E0,-8.399637043E-2,4.854116589E-2,-3.555269718E0,3.556593089E0
8.599658492E0,-2.979310155E-1,2.102473937E-2,-4.332522392E0,4.342804993E0
8.618971499E0,-3.251879811E-1,-3.256785125E-2,-3.796111345E0,3.810153440E0
8.638289814E0,-1.486346275E-1,-5.654150620E-2,-2.135857344E0,2.141769312E0
8.657624738E0,9.490307420E-2,-4.068975523E-2,1.705743968E-1,1.993937675E-1
8.676935116E0,2.592189908E-1,-4.211068526E-2,2.382535696E0,2.396965610E0
8.696270840E0,3.417734206E-1,-4.199587181E-2,3.919577599E0,3.934674227E0
8.715590870E0,3.759174049E-1,-5.362469703E-2,4.451617241E0,4.467783070E0
8.734937047E0,3.874867857E-1,-9.137649834E-2,3.651755333E0,3.673392531E0
8.754248725E0,2.994083166E-1,-6.876634061E-2,1.548953652E0,1.579123671E0
8.773561680E0,9.833253175E-2,-3.423086181E-2,-1.003323555E0,1.008711651E0
8.792902418E0,-1.432778537E-1,-7.602486294E-3,-2.977514744E0,2.980969706E0
8.812220351E0,-2.605039477E-1,8.298807777E-3,-3.991154194E0,3.999655357E0
8.831557837E0,-2.539477944E-1,7.243557367E-3,-3.949918985E0,3.958080588E0
8.850863882E0,-9.295753390E-2,-2.098859660E-2,-2.785713673E0,2.787343232E0
8.870184100E0,9.151976556E-2,-5.792064965E-2,-6.475501060E-1,6.565453594E-1
8.889523876E0,2.445680201E-1,-6.826667488E-2,1.700209975E0,1.719065972E0
8.908844222E0,3.566321433E-1,-1.404991932E-2,3.543249846E0,3.561180051E0
8.928153507E0,4.119798839E-1,-5.427364260E-2,4.327912807E0,4.347815811E0
8.947484559E0,3.886153996E-1,-9.399949014E-2,3.831993818E0,3.852795668E0
8.966807007E0,2.841386199E-1,-6.958588958E-2,2.154138803E0,2.173911437E0
8.986118303E0,1.232075542E-1,-1.817930676E-2,-8.484618366E-2,1.506965942E-1
9.005458497E0,-5.403502285E-2,-1.842369512E-2,-2.197231293E0,2.197972832E0
9.024772929E0,-1.701609194E-1,-2.100073546E-2,-3.677613735E0,3.681608148E0
9.044118695E0,-2.856252491E-1,4.563765135E-3,-4.139624596E0,4.149469171E0
9.063438981E0,-2.428928018E-1,8.233400062E-3,-3.192553997E0,3.201791018E0
9.082758068E0,-8.589708060E-2,-4.155685008E-2,-1.203681588E0,1.207457927E0
9.102096806E0,1.319310069E-1,-6.925575435E-2,9.937608242E-1,1.004869507E0
9.121401284E0,3.144379556E-1,-5.768044665E-2,2.821547747E0,2.839600315E0
9.140741862E0,3.690536022E-1,-4.169424251E-2,3.958707809E0,3.976091862E0
9.160063017E0,3.817798793E-1,-5.247358978E-2,4.074681282E0,4.092864144E0
9.179399980E0,3.637732863E-1,-8.364333957E-2,2.818859816E0,2.843465820E0
9.198725233E0,3.078380227E-1,-6.251612306E-2,5.943564177E-1,6.722589271E-1
9.218061281E0,1.032285914E-1,1.925854199E-2,-1.612040043E0,1.615456633E0
9.237373834E0,-1.375174224E-1,8.916628547E-3,-3.076421261E0,3.079506181E0
9.256691324E0,-2.957503498E-1,-6.128424034E-2,-3.785698414E0,3.797727809E0
9.276032449E0,-2.701844573E-1,-5.144479871E-2,-3.562901974E0,3.573502019E0
9.295351834E0,-3.450293541E-1,-5.094482377E-2,-3.557947397E0,3.575000743E0
9.314668070E0,1.557664126E-1,3.754150867E-2,2.439832836E-1,2.918910462E-1
9.333992737E0,2.749662697E-1,-1.211421937E-1,2.400282145E0,2.419015555E0
9.353314742E0,3.164201677E-1,-1.923871785E-1,3.640165091E0,3.658952915E0
9.372646606E0,3.293085992E-1,-5.898535624E-2,3.888784647E0,3.903148659E0
9.391981298E0,3.354538381E-1,3.900732845E-2,3.171568155E0,3.189497674E0
9.411296370E0,2.715973556E-1,-1.552114077E-2,1.425055504E0,1.450789171E0
9.430609062E0,1.020682305E-1,-7.572458684E-2,-8.254551291E-1,8.351816012E-1
9.449947606E0,-1.183997169E-1,3.419855842E-3,-2.675971985E0,2.678592215E0
9.469271204E0,-2.862462997E-1,-7.258209866E-3,-3.525938272E0,3.537545806E0
9.488611876E0,-2.764191628E-1,-6.164779887E-2,-3.539347649E0,3.550660471E0
9.507927076E0,-9.065461904E-2,-6.445657462E-2,-2.552528143E0,2.554950651E0
9.527270332E0,2.560777403E-2,4.865077138E-2,-6.393923759E-1,6.417517168E-1
9.546585011E0,2.395771891E-1,2.481063642E-2,1.631232858E0,1.648918868E0
9.565852457E0,3.155580461E-1,-9.566807747E-2,3.308496475E0,3.324887696E0
9.585193129E0,3.243692517E-1,-1.812216789E-1,3.805985928E0,3.824079705E0
9.604508329E0,3.835477829E-1,-5.938321352E-2,3.319002151E0,3.341617954E0
9.623871418E0,3.319731057E-1,2.449998818E-2,2.022412777E0,2.049624315E0
9.643186618E0,2.257593423E-1,-1.992828771E-2,9.953062981E-2,2.475293186E-1
9.662528051E0,2.410433069E-2,-6.612715125E-2,-2.036212921E0,2.037428988E0
9.681843379E0,-1.698546261E-1,-1.135937870E-2,-3.416602373E0,3.420840745E0
9.701158707E0,-2.961921394E-1,5.609189160E-3,-3.579074621E0,3.591314020E0
9.720499379E0,-2.395846695E-1,-4.838627949E-2,-2.768687248E0,2.779455185E0
9.739833195E0,-5.017967150E-2,-6.320250034E-2,-1.230431795E0,1.233075406E0
9.759177123E0,1.427048147E-1,7.016945165E-3,7.202590108E-1,7.342935001E-1
9.778492451E0,2.289825231E-1,-1.565530337E-2,2.682540894E0,2.692341682E0
9.797833251E0,2.762190700E-1,-1.243695542E-1,3.805191994E0,3.817230785E0
9.817148707E0,3.400190473E-1,-1.418342590E-1,3.635742188E0,3.654360568E0
9.836464163E0,3.891191781E-1,-2.123775147E-2,2.381818295E0,2.413487759E0
9.855804963E0,4.729312360E-1,-2.069833688E-2,2.373467684E0,2.420215119E0
9.875121251E0,3.460202813E-1,4.869636521E-2,6.151385903E-1,7.074580245E-1
9.894457879E0,-1.625574082E-1,-1.174872667E-1,-2.854573488E0,2.861611079E0
9.913772662E0,-2.667714953E-1,-5.333485454E-2,-3.648051739E0,3.658181669E0
9.933109230E0,-2.363088578E-1,7.021789253E-2,-3.182768583E0,3.192301409E0
9.952434452E0,-5.769002438E-2,2.084739506E-2,-1.662891150E0,1.664022154E0
9.971765462E0,1.576109976E-1,-7.237049937E-2,2.165829688E-1,2.774651296E-1
9.991074024E0,2.676031590E-1,-1.014101580E-1,1.935092807E0,1.956138963E0
1.001041965E1,3.178990781E-1,-6.072996184E-2,3.241759062E0,3.257875039E0
1.002973142E1,2.754341960E-1,-4.461406916E-2,3.694673777E0,3.705194830E0
1.004904149E1,2.859932184E-1,-8.497292548E-2,2.978737116E0,2.993641148E0
1.006838425E1,2.344023287E-1,-6.054750457E-2,1.302129745E0,1.324444157E0
1.008770572E1,1.046372652E-1,4.809926730E-3,-6.747159958E-1,6.827984825E-1
1.010704497E1,-8.628031611E-2,3.395831911E-3,-2.388464689E0,2.390024978E0
1.012635574E1,-2.733124793E-1,-5.180633068E-2,-3.333634853E0,3.345221210E0
1.014569990E1,-2.508162558E-1,-6.489415467E-2,-3.278878212E0,3.289097502E0
1.016500169E1,-1.472903788E-1,-3.575636819E-2,-2.206103802E0,2.211304357E0
1.018434422E1,2.908092551E-2,3.242766857E-2,-5.307329893E-1,5.325173799E-1
1.020365095E1,1.585675478E-1,6.818441674E-3,1.323651910E0,1.333133353E0
1.022296752E1,2.199070007E-1,-9.837453067E-2,2.956026077E0,2.965826496E0
1.024231110E1,3.144463003E-1,-1.527104229E-1,3.693246365E0,3.709752776E0
1.026162258E1,3.491346836E-1,-8.932152390E-2,3.166919470E0,3.187358199E0
1.028096432E1,3.261395097E-1,3.053957596E-2,1.667566419E0,1.699434437E0
1.030027252E1,1.753459275E-1,3.262841329E-2,-4.951175675E-2,1.851005718E-1
1.031961423E1,-1.298838854E-2,-6.228674948E-2,-1.666950464E0,1.668164317E0
1.033892568E1,-1.577005237E-1,-8.021662384E-2,-2.979087830E0,2.984337189E0
1.035826584E1,-2.269715220E-1,-3.972670820E-4,-3.414037704E0,3.421574152E0
1.037757207E1,-2.026782185E-1,5.822281539E-2,-2.631239414E0,2.639675967E0
1.039688930E1,-9.418377280E-2,-4.699837789E-2,-9.850111604E-1,9.906192087E-1
1.041623244E1,-1.755178422E-1,-4.736008868E-2,-9.776481390E-1,9.944070467E-1
1.043553606E1,-2.073665336E-2,-1.041503698E-1,7.941982150E-1,8.012665680E-1
1.045488155E1,3.261834979E-1,6.830749102E-3,3.364978790E0,3.380757991E0
1.047419423E1,3.443816006E-1,-9.847883135E-2,3.459755421E0,3.478247308E0
1.049346403E1,2.440332770E-1,-1.690637320E-1,2.319002151E0,2.337927664E0
1.051280393E1,1.187069938E-1,-6.512534618E-2,4.653629959E-1,4.846600654E-1
1.053211836E1,-9.945185855E-3,8.366937190E-2,-1.277908564E0,1.280683321E0
1.055143292E1,-1.199620813E-1,8.434510231E-2,-2.580522060E0,2.584685494E0
1.057077154E1,-2.317289561E-1,-6.597445905E-2,-3.169423342E0,3.178568114E0
1.059008597E1,-2.112548947E-1,-1.476430893E-1,-2.826820612E0,2.838545734E0
1.060942587E1,-4.770660028E-2,-5.074799433E-2,-1.579876304E0,1.581410893E0
1.062874030E1,1.537008882E-1,7.202041149E-2,1.216262728E-1,2.088153561E-1
1.064808008E1,2.344268560E-1,4.297931213E-3,1.811714053E0,1.826822989E0
1.066739215E1,2.265892625E-1,-1.553449482E-1,3.130717039E0,3.142747830E0
1.068673192E1,2.303917110E-1,-1.943792701E-1,3.473976612E0,3.487029845E0
1.070606850E1,3.065933287E-1,5.631842185E-3,2.608676434E0,2.626637379E0
1.072540828E1,2.577913105E-1,7.031211257E-2,1.042403817E0,1.076106812E0
1.074472271E1,7.237529010E-2,-6.417770684E-2,-6.061919332E-1,6.138612388E-1
1.076403618E1,-1.306296289E-1,-1.198344454E-1,-2.090382576E0,2.097885533E0
1.078337596E1,-2.675239146E-1,-6.937891990E-2,-3.073542356E0,3.085943145E0
1.080269014E1,-2.303693295E-1,6.739219278E-2,-3.084357738E0,3.093682982E0
1.082203004E1,-1.150216982E-1,1.742355898E-2,-2.027340889E0,2.030675910E0
1.084134422E1,6.677266676E-3,-6.166832522E-2,-2.983840406E-1,3.047631932E-1
1.086067119E1,1.121396646E-1,-9.017555416E-2,1.377276897E0,1.384773840E0
1.088001385E1,2.265398055E-1,-5.089857802E-2,2.640419483E0,2.650608609E0
1.089933007E1,2.813105881E-1,-2.299448662E-2,3.200413465E0,3.212835312E0
1.091866553E1,2.945820093E-1,-6.158377230E-2,2.906617165E0,2.922155790E0
1.093797438E1,2.477002144E-1,-1.301610768E-1,1.748950124E0,1.771192773E0
1.095732144E1,1.813829690E-1,-9.424420446E-2,-8.004780859E-3,2.045625284E-1
1.097662777E1,4.863819480E-2,7.884825766E-2,-1.774491787E0,1.776908502E0
1.099594198E1,-1.596820354E-1,8.110737056E-2,-2.854714632E0,2.860327322E0
1.101525616E1,-1.567804068E-1,8.330814540E-2,-2.854910135E0,2.860425182E0
1.103457034E1,-3.485295177E-1,-9.253068268E-2,-2.946661949E0,2.968644707E0
1.105390986E1,2.945366874E-2,2.653880045E-2,-1.030453563E0,1.031215967E0
1.107322960E1,2.333668023E-1,1.362144351E-1,6.444941163E-1,6.988469809E-1
1.109256925E1,2.524230480E-1,-7.504329830E-2,2.360443592E0,2.375087965E0
1.111188355E1,2.350907624E-1,-2.639316618E-1,3.226655483E0,3.245956438E0
1.113119773E1,2.012745291E-1,-1.337898970E-1,2.939845324E0,2.949762990E0
1.115053738E1,2.432521284E-1,1.093298197E-1,1.949910998E0,1.968064407E0
1.116985474E1,1.726400256E-1,4.525059834E-2,6.152291894E-1,6.405928118E-1
1.118919439E1,5.076715257E-3,-1.324736774E-1,-1.031797886E0,1.040279734E0
1.120850882E1,-1.673996449E-1,-9.760112315E-2,-2.524670839E0,2.532096259E0
1.122782312E1,-2.297771722E-1,3.716669604E-2,-3.072494030E0,3.081298180E0
1.124716277E1,-1.554186493E-1,9.551126510E-2,-2.539105892E0,2.545650426E0
1.126647784E1,-6.774120033E-2,-6.591401994E-2,-1.360426188E0,1.363705591E0
1.128581761E1,6.433565170E-2,-1.480473280E-1,1.768151224E-1,2.394173655E-1
1.130513192E1,2.001518309E-1,-7.862966508E-2,1.742925644E0,1.756141560E0
1.132448758E1,2.800366879E-1,1.777913608E-2,2.858455658E0,2.872195222E0
1.134380167E1,3.087427914E-1,-3.818267956E-2,3.047402382E0,3.063240328E0
1.136314640E1,2.605983615E-1,-1.331928223E-1,2.370269537E0,2.388269146E0
1.138247468E1,1.486131102E-1,-1.328486055E-1,1.076761484E0,1.095057032E0
1.140180443E1,8.277895302E-2,1.342307124E-2,-5.285707116E-1,5.351817739E-1
1.142112613E1,8.229184896E-3,1.052868366E-1,-2.088712454E0,2.091380585E0
1.144046325E1,-1.327307969E-1,-1.546283159E-2,-2.867450476E0,2.870562453E0
1.145977614E1,-2.557226717E-1,-1.487846673E-1,-2.660451174E0,2.676851025E0
1.147911671E1,-2.255828977E-1,-9.603719413E-2,-1.767336488E0,1.784261485E0
1.149840041E1,-2.469581738E-2,6.563499570E-2,-4.341427684E-1,4.397701438E-1
1.151771472E1,1.716730893E-1,8.420772851E-2,1.186068416E0,1.201382902E0
1.153705462E1,2.400492728E-1,-8.769848943E-2,2.666069269E0,2.678290504E0
1.155636918E1,2.464755923E-1,-2.274618894E-1,3.157254696E0,3.175019109E0
1.157570823E1,2.716094851E-1,-2.310160995E-1,3.154398918E0,3.174487783E0
1.159503824E1,3.003032506E-1,-9.764368832E-2,2.503781319E0,2.523615903E0
1.161437802E1,8.443307132E-2,5.642238632E-2,-2.059179824E-3,1.015710068E-1
1.163369905E1,-7.172457874E-2,-9.235419333E-2,-1.402027011E0,1.406894968E0
1.165301318E1,-2.007683069E-1,-1.389868259E-1,-2.620509624E0,2.631861688E0
1.167235591E1,-1.959855705E-1,2.095335722E-2,-2.934957266E0,2.941568211E0
1.169167244E1,-7.748687267E-2,6.565899402E-2,-2.154668331E0,2.157060717E0
1.171100613E1,1.090473682E-2,-5.192337185E-2,-6.884543300E-1,6.904957019E-1
1.173032656E1,1.057779938E-1,-1.203015670E-1,7.947843671E-1,8.107673163E-1
1.174966094E1,1.926351488E-1,-8.169060946E-2,2.046311617E0,2.056981500E0
1.176897795E1,2.640385628E-1,1.472508186E-3,2.843548536E0,2.855781296E0
1.178828979E1,2.857642770E-1,-5.048726499E-2,2.842598915E0,2.857372705E0
1.180776821E1,2.150374353E-1,-1.196131185E-1,1.894057155E0,1.909974058E0
1.182695125E1,6.867243350E-2,-9.501177818E-2,3.968630433E-1,4.138156791E-1
1.184628083E1,-4.049936682E-2,-1.059238100E-3,-1.113114238E0,1.113851259E0
1.186559921E1,-1.155745313E-1,2.458199114E-2,-2.319253922E0,2.322261936E0
1.188491364E1,-1.797627211E-1,-3.300853772E-3,-2.784437656E0,2.790236297E0
1.190424979E1,-1.637042165E-1,-2.706505358E-2,-2.316835642E0,2.322769678E0
1.192357151E1,-1.429077536E-1,-7.971911877E-2,-1.136452794E0,1.148173644E0
1.194289904E1,3.893321007E-2,-4.092518240E-2,2.375688255E-1,2.441917530E-1
1.196221347E1,1.602903605E-1,-1.384111401E-2,1.583778620E0,1.591929424E0
1.198153140E1,2.422750294E-1,-2.343768440E-2,2.638596535E0,2.649799651E0
1.200087314E1,1.934746653E-1,-1.591433436E-1,2.936042070E0,2.946710384E0
1.202018858E1,1.835564077E-1,-2.046999037E-1,2.164066553E0,2.181462595E0
1.203951959E1,1.569427252E-1,-1.672048867E-2,7.491531968E-1,7.655985280E-1
1.205883402E1,1.455609649E-1,1.897966862E-1,-6.371136904E-1,6.805326084E-1
1.207818078E1,4.719611723E-3,2.738924138E-2,-1.801542759E0,1.801757131E0
1.209749436E1,-1.683758795E-1,-1.249610335E-1,-2.539131641E0,2.547774556E0
1.211683044E1,-2.225289792E-1,-9.928152710E-2,-2.536363363E0,2.548041420E0
1.213615039E1,-1.313121468E-1,3.846566007E-2,-1.670812726E0,1.676406172E0
1.215546084E1,-1.951395422E-1,3.963004425E-2,-1.665484786E0,1.677345985E0
1.217479818E1,9.289461374E-2,-1.217314899E-1,1.234604239E0,1.244064143E0
1.219411866E1,1.590379626E-1,-1.746673882E-1,2.388998508E0,2.400649005E0
1.221337116E1,2.723336816E-1,-3.822543845E-2,2.828965664E0,2.842300749E0
1.223271093E1,2.804911137E-1,1.444568578E-2,2.375513554E0,2.392059486E0
1.225202524E1,1.582378298E-1,-6.878010929E-2,1.234894276E0,1.246889645E0
1.227134524E1,1.157363784E-2,-1.365406960E-1,-1.390316188E-1,1.952104039E-1
1.229068514E1,-6.095295772E-2,-1.462795958E-2,-1.469885230E0,1.471221204E0
1.230999957E1,-7.984709740E-2,1.325489879E-1,-2.415170193E0,2.420122281E0
1.232931413E1,-1.638428420E-1,-4.183806479E-3,-2.552135229E0,2.557392463E0
1.234865391E1,-2.041128129E-1,-2.458694726E-1,-1.867390871E0,1.894534904E0
1.236797288E1,-9.234541655E-2,-1.490573883E-1,-6.333054304E-1,6.571313028E-1
1.238731279E1,1.631420851E-1,1.339882612E-1,6.583340168E-1,6.913550982E-1
1.240662735E1,3.126292229E-1,1.881642491E-1,1.881692886E0,1.916744880E0
1.242594191E1,2.276940942E-1,-1.740740389E-1,2.746118546E0,2.761034849E0
1.244525647E1,1.435854882E-1,-3.901851475E-1,2.690355301E0,2.722291845E0
1.246459637E1,2.002749741E-1,-9.936592728E-2,1.628424525E0,1.643700121E0
1.248391919E1,2.130472660E-1,2.129318863E-1,1.869464219E-1,3.545110582E-1
1.250325922E1,5.143569410E-2,8.065238595E-2,-1.034292698E0,1.038706803E0
1.252257391E1,-1.657180339E-1,-2.048838884E-1,-1.965437651E0,1.983024214E0
1.254188860E1,-2.007152140E-1,-1.956823468E-1,-2.469758749E0,2.485615911E0
1.256122863E1,-1.115793586E-1,8.846040815E-2,-2.261132479E0,2.265611459E0
1.258054997E1,-4.300995171E-2,1.468254775E-1,-1.190131068E0,1.199924804E0
1.259986465E1,-2.971231192E-2,-1.618594080E-1,3.329527974E-1,3.714012046E-1
1.261923236E1,6.066069752E-2,-2.308239341E-1,1.678098559E0,1.694985010E0
1.263854705E1,2.168400735E-1,-1.588481851E-2,2.432572842E0,2.442269964E0
1.265788734E1,3.038763702E-1,1.075483039E-1,2.553023100E0,2.573292528E0
1.267720445E1,1.788935363E-1,-1.214965358E-1,2.026924610E0,2.038427747E0
1.269651939E1,1.169885546E-1,-2.324439436E-1,8.580178618E-1,8.966109302E-1
1.271585955E1,1.780813187E-1,-2.348270565E-1,8.526542187E-1,9.021507187E-1
1.273517450E1,1.457231343E-1,-2.014240995E-2,-6.265833378E-1,6.436207173E-1
1.275451466E1,-1.775990576E-1,2.229539864E-2,-2.374135256E0,2.380873101E0
1.277385228E1,-2.560953498E-1,-2.477600127E-1,-2.209993601E0,2.238535586E0
1.279316886E1,-1.239903495E-1,-1.263416559E-1,-1.469211817E0,1.479837553E0
1.281250928E1,7.699550688E-2,1.171752587E-1,-2.613412440E-1,2.965764575E-1
1.283182422E1,1.897601187E-1,9.204334766E-2,1.152759075E0,1.171893496E0
1.285117413E1,1.554405391E-1,-1.899343431E-1,2.278940916E0,2.292118783E0
1.287048755E1,1.762904525E-1,-2.306814641E-1,2.664061546E0,2.679835104E0
1.288980467E1,2.631070912E-1,1.189678069E-2,2.210998535E0,2.226630054E0
1.290914514E1,2.301829457E-1,7.907928526E-2,1.180038810E0,1.204877303E0
1.292845426E1,2.158231661E-2,-8.462039381E-2,-1.386949420E-1,1.638984270E-1
1.294777909E1,-1.396821886E-1,-1.953258961E-1,-1.441805720E0,1.461665849E0
1.296709426E1,-1.785378307E-1,-2.044839971E-2,-2.277774334E0,2.284852251E0
1.298644760E1,-1.569251716E-1,1.422743201E-1,-2.387285948E0,2.396664701E0
1.300575413E1,-1.162968948E-1,-1.860254444E-2,-1.715982556E0,1.720019522E0
1.302505117E1,-5.290167406E-2,-1.932636201E-1,-5.182773471E-1,5.556625077E-1
1.304439184E1,1.053772941E-1,-7.221581787E-2,7.594266534E-1,7.700963189E-1
1.306370717E1,2.018283904E-1,1.193652451E-1,1.884871125E0,1.899400411E0
1.308305436E1,1.797089428E-1,-4.034734517E-2,2.568334818E0,2.574930475E0
1.310238121E1,1.689423174E-1,-2.446133047E-1,2.481774569E0,2.499516390E0
1.312170128E1,1.816394925E-1,-1.673965305E-1,1.504988551E0,1.525124599E0
1.314104951E1,1.762902588E-1,7.604451478E-2,1.593548954E-1,2.495095314E-1
1.316034930E1,3.598618135E-2,7.873344421E-2,-1.020520091E0,1.024185148E0
1.317969078E1,-1.597860605E-1,-9.792325646E-2,-1.951274395E0,1.960253125E0
1.319900957E1,-2.262858301E-1,-1.555230319E-1,-2.400833130E0,2.416483480E0
1.321833266E1,-1.107829586E-1,3.445210308E-2,-2.069492102E0,2.072741511E0
1.323766562E1,-1.321055926E-2,1.200358123E-1,-9.576390982E-1,9.652231646E-1
1.325698732E1,6.799886003E-3,-5.407952145E-2,5.104529858E-1,5.133547348E-1
1.327630816E1,6.796301156E-2,-2.184359133E-1,1.690938950E0,1.706343386E0
1.329564795E1,1.694723815E-1,-1.374955475E-1,2.294035196E0,2.304392197E0
1.331496172E1,2.273848504E-1,-1.672005397E-3,2.334517002E0,2.345565241E0
1.333429883E1,1.554394960E-1,6.517919153E-2,1.702511787E0,1.710834928E0
1.335360884E1,9.002988040E-2,-7.039705664E-2,7.256110311E-1,7.345559838E-1
1.337292442E1,-1.737147104E-3,-1.387225240E-1,-5.239236951E-1,5.419806220E-1
1.339227567E1,-6.901732832E-2,-6.022516638E-2,-1.784554839E0,1.786904149E0
1.341159430E1,-1.717915535E-1,4.753537104E-2,-2.346343279E0,2.353104063E0
1.343091374E1,-1.759436280E-1,2.162979729E-2,-1.950119615E0,1.958159983E0
1.345024450E1,-9.882108867E-2,-7.479003072E-2,-1.072983146E0,1.080116654E0
1.346956205E1,3.245650232E-2,-9.042539448E-2,-5.668605119E-2,1.115503694E-1
1.348890311E1,1.668737829E-1,-1.701024920E-2,1.028384447E0,1.041974462E0
1.350821882E1,1.355889291E-1,-5.228037760E-2,2.002783060E0,2.008048202E0
1.352753286E1,1.592339575E-1,3.736234829E-2,2.115110874E0,2.121425325E0
1.354687934E1,1.432105750E-1,-3.274394944E-2,1.771932125E0,1.778011499E0
1.356619527E1,1.224508435E-1,-1.083070040E-1,1.178532481E0,1.189816551E0
1.358552949E1,5.758154020E-2,-8.272505552E-2,5.240724608E-2,1.136027642E-1
1.360484460E1,-2.149247937E-2,3.550106892E-3,-1.319885969E0,1.320065719E0
1.362416560E1,-1.187834293E-1,9.867060930E-3,-1.922110796E0,1.925802891E0
1.364350394E1,-1.864141226E-1,-8.211603016E-2,-1.771355152E0,1.783028980E0
1.366282317E1,-1.397131532E-1,-7.456211001E-2,-1.412414432E0,1.421264859E0
1.368214512E1,-2.828441560E-2,1.966446452E-2,-6.962928772E-1,6.971445117E-1
1.370147382E1,8.175990731E-2,3.048736253E-4,6.200832725E-1,6.254502699E-1
1.372079629E1,9.669000655E-2,-1.205317974E-1,1.757409692E0,1.764189813E0
1.374013370E1,1.178435609E-1,-1.674786806E-1,2.072829962E0,2.082921089E0
1.375945190E1,2.183218896E-1,-1.820456423E-2,1.824224591E0,1.837332635E0
1.377877311E1,2.518461049E-1,4.076729342E-2,1.353597641E0,1.377430581E0
1.379810303E1,1.431063414E-1,-5.645450577E-2,4.322506487E-1,4.588105922E-1
1.381742130E1,-6.753295660E-2,-1.433762908E-1,-8.553701043E-1,8.699284317E-1
1.383676854E1,-1.515112966E-1,-1.155887097E-1,-1.771868825E0,1.782087415E0
1.385608208E1,-1.447108835E-1,-1.139726341E-1,-1.772371769E0,1.781918261E0
1.387542380E1,-1.178366989E-1,6.384065002E-2,-1.892936468E0,1.897674785E0
1.389474250E1,-5.586075783E-2,-7.443134487E-2,-8.110840321E-1,8.164053873E-1
1.391399686E1,-2.460208535E-2,-1.806199849E-1,2.456143349E-1,3.058680158E-1
1.393331270E1,9.314858168E-2,-8.196538687E-2,1.329929233E0,1.335704588E0
1.395265389E1,2.262198329E-1,7.816895097E-2,1.880741835E0,1.895910242E0
1.397196973E1,2.027345300E-1,-1.884066686E-2,1.936293960E0,1.946969583E0
1.399130738E1,1.226826832E-1,-1.503739357E-1,1.645744324E0,1.657147471E0
1.401062310E1,4.079692438E-2,-1.637297869E-1,7.523379922E-1,7.710280712E-1
1.402993894E1,3.952365741E-2,6.038836017E-2,-5.772494674E-1,5.817437762E-1
1.404928012E1,-7.387286425E-2,8.514581621E-2,-1.496067524E0,1.500308317E0
1.406859596E1,-1.841000915E-1,-1.129095033E-1,-1.703398108E0,1.717034221E0
1.408790546E1,-1.924108863E-1,-1.795192212E-1,-1.580213904E0,1.601975369E0
1.410724665E1,-7.012745738E-2,5.639343988E-3,-1.194595218E0,1.196665115E0
1.412656211E1,1.014128327E-1,1.411910206E-1,-2.338262200E-1,2.913660380E-1
1.414587782E1,1.052827314E-1,-7.016533613E-2,1.041354656E0,1.049012463E0
1.416521887E1,1.066112891E-1,-2.448455691E-1,1.865337491E0,1.884356462E0
1.418453459E1,1.302488297E-1,-1.425054818E-1,1.935311437E0,1.944917203E0
1.420385030E1,2.163136303E-1,1.031591818E-1,1.562838435E0,1.581106378E0
1.422319135E1,1.860151291E-1,1.058822051E-1,9.694321752E-1,9.927796391E-1
1.424250707E1,2.628628723E-2,-1.641223133E-1,2.313064784E-2,1.678157605E-1
1.426182265E1,-1.200488508E-1,-2.348077744E-1,-1.072409511E0,1.104358898E0
1.428116203E1,-1.271275878E-1,-3.975924570E-3,-1.742416859E0,1.747052873E0
1.430047761E1,-8.946416527E-2,2.009315342E-1,-1.768374801E0,1.782000773E0
1.431981867E1,-1.357915550E-1,2.532568574E-2,-1.245986581E0,1.253620077E0
1.433913425E1,-1.241842508E-1,-2.177235186E-1,-3.533185124E-1,4.331965258E-1
1.435844984E1,-5.811467394E-2,-2.176052779E-1,6.354327202E-1,6.741692029E-1
1.437779089E1,8.601304889E-2,1.193396375E-2,1.431685328E0,1.434316403E0
1.439710293E1,2.039152086E-1,9.422941506E-2,1.842269182E0,1.855913881E0
1.441644398E1,1.662098616E-1,-6.631302088E-2,1.838983774E0,1.847670007E0
1.443575944E1,1.975209117E-1,-6.601957232E-2,1.835718393E0,1.847494280E0
1.445507502E1,1.570953727E-1,-1.647831649E-1,1.269225240E0,1.289482515E0
1.447441595E1,-5.272647366E-2,3.561905026E-2,-8.635578156E-1,8.658988963E-1
1.449373154E1,-1.267772317E-1,-1.787219942E-2,-1.508796811E0,1.514219171E0
1.451307246E1,-1.613075137E-1,-8.359591663E-2,-1.673802137E0,1.683633567E0
1.453238805E1,-1.343445480E-1,-4.344323277E-2,-1.385628462E0,1.392803650E0
1.455174067E1,-8.815525100E-3,3.719560429E-2,-6.992225051E-1,7.002666193E-1
1.457108160E1,6.829491258E-2,-3.970738500E-2,2.606886625E-1,2.723957604E-1
1.459039512E1,8.628364652E-2,-1.335828900E-1,1.180779576E0,1.191440164E0
1.460973605E1,7.586543262E-2,-1.070723459E-1,1.730936408E0,1.735903482E0
1.462905163E1,1.230224818E-1,2.451231703E-3,1.867921233E0,1.871969624E0
1.464839256E1,1.905276328E-1,3.826611675E-3,1.468676448E0,1.480988160E0
1.466773349E1,1.155175269E-1,-6.644950807E-2,5.486862063E-1,5.646382817E-1
1.468703839E1,-4.407825321E-2,-1.100874469E-1,-5.078634024E-1,5.215240875E-1
1.470637359E1,-1.638271511E-1,-6.855435669E-2,-1.249261975E0,1.261821904E0
1.472572179E1,-1.691353917E-1,-1.292787120E-2,-1.606159329E0,1.615091856E0
1.474504120E1,-8.418139070E-2,2.584801242E-2,-1.591731787E0,1.594165834E0
1.476438994E1,-4.982204735E-2,-4.184876755E-2,-1.026117444E0,1.028178275E0
1.478369672E1,-1.726901159E-2,-6.322128326E-2,1.585826091E-2,6.742873169E-2
1.480300695E1,3.601070493E-3,-7.631395757E-2,1.017414331E0,1.020278741E0
1.482234877E1,9.769662470E-2,-6.505356729E-2,1.593851686E0,1.598167636E0
1.484166150E1,1.808757037E-1,-3.823608533E-2,1.743524194E0,1.753298216E0
1.486093594E1,1.566633880E-1,-3.590648621E-2,1.548282981E0,1.556602994E0
1.488025127E1,1.246416867E-1,-6.306428462E-2,9.142650366E-1,9.248747003E-1
1.489956660E1,5.999221001E-3,-9.964033216E-2,-1.273573935E-1,1.618149935E-1
1.491890740E1,-6.460000575E-2,-4.710970819E-2,-1.154279590E0,1.157045313E0
1.493822234E1,-1.193322986E-1,2.265226282E-2,-1.646718621E0,1.651192157E0
1.495756314E1,-9.797309339E-2,5.098398030E-2,-1.577117205E0,1.580979687E0
1.497687860E1,-1.021916792E-1,-1.768979430E-2,-1.109248638E0,1.114086446E0
1.499619003E1,-1.005881652E-1,-9.910138696E-2,-3.121823072E-1,3.426322472E-1
1.501553057E1,-1.423466206E-1,-9.873054922E-2,-3.082277179E-1,3.535740485E-1
1.503484577E1,-4.949388653E-2,-9.871294349E-2,6.250545382E-1,6.347338543E-1
1.505416097E1,1.710914820E-1,2.441784926E-2,1.841319799E0,1.849412645E0
1.507353439E1,1.561211795E-1,-4.153847694E-2,1.799126267E0,1.806365022E0
1.509284766E1,7.673572749E-2,-1.100037992E-1,1.125824332E0,1.133785533E0
1.511218834E1,-4.728132626E-5,-4.033190012E-2,6.994643807E-2,8.074136859E-2
1.513150341E1,-7.005861402E-2,2.641527355E-2,-8.906022906E-1,8.937440440E-1
1.515081861E1,-1.354427040E-1,-3.863422200E-2,-1.399277925E0,1.406348478E0
1.517015915E1,-1.722883284E-1,-5.099777877E-2,-1.564112067E0,1.574398488E0
1.518949172E1,-1.172914132E-1,1.860728048E-6,-1.384920120E0,1.389878058E0
1.520884416E1,-8.583629131E-2,-1.450223476E-2,-7.121794224E-1,7.174801136E-1
1.522816492E1,-1.514540426E-2,-8.758915216E-2,3.560743332E-1,3.670015989E-1
1.524749872E1,1.015624702E-1,-8.505682647E-2,1.275834322E0,1.282693578E0
1.526681293E1,1.916329861E-1,7.541131228E-3,1.702860236E0,1.713625704E0
1.528613364E1,2.294269800E-1,8.808632940E-2,1.703191876E0,1.720830761E0
1.530546796E1,1.203540489E-1,-3.235849366E-2,1.317563176E0,1.323444329E0
1.532477477E1,5.178167671E-2,-1.564670503E-1,4.898769557E-1,5.168585025E-1
1.534411433E1,-3.496464714E-2,-7.764892280E-2,-4.974444807E-1,5.046809815E-1
1.536342953E1,-1.059796363E-1,5.946777761E-2,-1.250712633E0,1.256602638E0
1.538275566E1,-9.291419387E-2,1.023946553E-1,-1.483274460E0,1.489704949E0
1.540207477E1,-1.340978444E-1,-6.176073849E-2,-1.399405956E0,1.407172218E0
1.542138971E1,-1.278940141E-1,-2.127056420E-1,-9.584496021E-1,9.900637398E-1
1.544073013E1,-5.645899847E-2,-2.875653654E-2,-8.102045208E-2,1.028536366E-1
1.546004533E1,1.039292440E-1,8.266375959E-2,8.655995131E-1,8.757266137E-1
1.547936002E1,1.715162843E-1,5.635211989E-2,1.564443827E0,1.574826303E0
1.549871069E1,1.718461066E-1,-1.222319975E-1,1.741479993E0,1.754201901E0
1.551802563E1,1.293438375E-1,-8.325105906E-2,1.410606265E0,1.418968147E0
1.553736759E1,1.147999987E-1,8.193836361E-2,7.912113070E-1,8.036841840E-1
1.555668086E1,4.309682548E-2,1.909635402E-2,7.715897262E-2,9.041854986E-2
1.557598960E1,-9.747835249E-2,-1.720744371E-1,-8.657200336E-1,8.880218566E-1
1.559532713E1,-4.509089887E-2,-1.765531749E-1,-8.698807955E-1,8.887613915E-1
1.561464208E1,-1.052435637E-1,1.067971289E-1,-1.742180824E0,1.748621131E0
1.563398885E1,-7.754797488E-2,1.652393490E-1,-1.126117706E0,1.140814980E0
1.565329547E1,-2.510368265E-2,-8.889475465E-2,-2.076795399E-1,2.272955424E-1
1.567261041E1,7.256364077E-2,-1.849742085E-1,6.032049656E-1,6.350883169E-1
1.569195912E1,1.701982319E-1,1.654285938E-2,1.249901295E0,1.261544431E0
1.571127593E1,1.893340796E-1,1.123206839E-1,1.716683388E0,1.730741224E0
1.573058134E1,1.399334073E-1,1.800405793E-2,1.974927902E0,1.979961041E0
1.574990676E1,1.770763658E-2,-9.603694081E-2,1.233804464E0,1.237663165E0
1.576924124E1,-1.671337709E-2,-9.838705510E-2,1.357661933E-1,1.684986909E-1
1.578856068E1,-5.209506750E-1,9.307607263E-2,-3.699818134E0,3.737473343E0
1.580787984E1,-6.117735803E-2,-1.713526696E-1,1.121392548E-1,2.137279088E-1
