"Time (s)","Linear Acceleration x (m/s^2)","Linear Acceleration y (m/s^2)","Linear Acceleration z (m/s^2)","Absolute acceleration (m/s^2)"
0.000000000E0,-9.347295016E-2,-1.536768675E-1,-8.126319647E-1,8.323007161E-1
1.930641000E-2,-5.562721491E-1,-1.399702579E-1,1.372964025E0,1.487971972E0
3.863225400E-2,-6.398670673E-1,-1.929620802E-1,6.253255606E-1,9.152574965E-1
5.796939000E-2,-5.739244223E-1,-1.384669393E-1,1.377427459E0,1.498622281E0
7.726748600E-2,-7.138991952E-1,-4.097420350E-2,-9.121035337E-1,1.158992581E0
9.661084600E-2,-6.221933961E-1,1.466123611E-1,4.405164625E-3,6.392489437E-1
1.159389400E-1,-5.540569425E-1,-2.760470845E-2,1.175345182E0,1.299683582E0
1.352411320E-1,-6.489718556E-1,4.661744833E-2,1.127876863E-1,6.603474223E-1
1.545850450E-1,-7.021850348E-1,-5.955841765E-2,-7.893632650E-1,1.058161326E0
1.739012780E-1,-5.957307816E-1,-2.303695083E-1,3.399350643E-1,7.235475951E-1
1.932424140E-1,-5.011716485E-1,7.067577541E-2,1.094694614E0,1.206036643E0
2.125438410E-1,-5.395922065E-1,-1.201635748E-1,1.233180091E-1,5.663977095E-1
2.318472170E-1,-5.810434222E-1,1.056706905E-1,-2.957429290E-1,6.604859070E-1
2.511872650E-1,-5.422164202E-1,8.727955818E-2,7.406562567E-1,9.220564289E-1
2.705019210E-1,-5.286104679E-1,8.119761199E-2,9.450811744E-1,1.085909989E0
2.898420170E-1,-5.668339133E-1,-9.291240573E-2,2.797558159E-2,5.750791542E-1
3.091566730E-1,-5.922120214E-1,-1.092037410E-1,-2.444779277E-1,6.499307597E-1
3.284985040E-1,-5.821096301E-1,-2.576326430E-1,3.807961047E-1,7.417761613E-1
3.478166910E-1,-6.871496439E-1,-1.041941810E-2,4.381804913E-2,6.886241492E-1
3.671309010E-1,-6.375715733E-1,2.309236079E-1,-7.847054601E-1,1.037104567E0
3.864706770E-1,-2.654409111E-1,-1.430569738E-1,5.037824512E-1,5.871294007E-1
4.057920530E-1,2.231134176E-1,-2.876655161E-1,5.293189526E0,5.305693772E0
4.251120520E-1,-8.218907565E-2,-3.213372827E-1,9.262016296E0,9.267953311E0
4.444265480E-1,3.937319815E-1,-1.647616550E-2,2.009319544E0,2.047598927E0
4.637410440E-1,9.056122899E-1,7.437466830E-2,-2.275324583E0,2.450054524E0
4.830555080E-1,-2.268887460E-1,-1.805189997E-1,-6.714530468E0,6.720787530E0
5.023954120E-1,-1.360597610E0,-6.395027041E-2,-1.121491432E1,1.129732795E1
5.217098760E-1,-1.238314033E0,1.269594533E-3,-1.072685146E1,1.079809083E1
5.410339720E-1,-5.030924678E-1,2.766264230E-2,-6.177859306E0,6.198371791E0
5.603741960E-1,2.778250873E-1,-1.220395491E-1,1.290035725E0,1.325244355E0
5.797022020E-1,5.108845830E-1,-2.611271441E-1,8.271854401E0,8.291728750E0
5.990241930E-1,3.976891637E-1,-2.788522840E-1,8.296466827E0,8.310672481E0
6.183654720E-1,5.347732306E-1,-1.974435747E-1,1.068003082E1,1.069523374E1
6.376789500E-1,5.946120620E-1,-1.824043989E-1,7.307386398E0,7.333807391E0
6.568713090E-1,3.927092552E-1,-1.705685258E-1,1.154659390E0,1.231483857E0
6.762115330E-1,-2.984744310E-1,-1.496217586E-2,-6.187003613E0,6.194217025E0
6.955264770E-1,-1.046500206E0,-3.624020144E-2,-1.035095596E1,1.040378611E1
7.148414210E-1,-1.201067805E0,-6.537144631E-2,-1.066744709E1,1.073504843E1
7.341776770E-1,-6.760989428E-1,-1.924387738E-2,-7.547600269E0,7.577845996E0
7.535186690E-1,1.119957492E-1,-7.874972373E-2,-1.769617677E0,1.774905994E0
7.728341890E-1,5.378045440E-1,-1.636534482E-1,4.840472221E0,4.873006003E0
7.921498370E-1,5.794498324E-1,-2.070901692E-1,9.541482925E0,9.561304559E0
8.114907650E-1,5.369167328E-1,-1.848996431E-1,1.083222580E1,1.084710022E1
8.308197890E-1,5.551692247E-1,-1.804221421E-1,8.627846718E0,8.647572145E0
8.501356930E-1,4.181556404E-1,-1.398924589E-1,3.323782921E0,3.352902764E0
8.694770050E-1,-7.383815944E-2,-8.303875476E-2,-3.102090836E0,3.104080389E0
8.887930370E-1,-6.030808091E-1,-3.975693136E-2,-8.251818657E0,8.273922783E0
9.081090050E-1,-1.259424925E0,-5.760220438E-2,-1.055628967E1,1.063130852E1
9.274604930E-1,-1.097471714E0,-1.632810012E-2,-9.124496460E0,9.190274556E0
9.467767810E-1,-4.678276181E-1,-4.075228050E-2,-4.368504524E0,4.393672178E0
9.660929410E-1,1.730642021E-1,-1.334431469E-1,2.292915344E0,2.303306117E0
9.854092290E-1,4.130546749E-1,-1.955487132E-1,7.847500324E0,7.860796067E0
1.004750797E0,4.512926638E-1,-1.770053357E-1,1.008864689E1,1.010028673E1
1.024075725E0,5.644723177E-1,-1.805533320E-1,9.437723160E0,9.456312545E0
1.043392141E0,6.592329144E-1,-1.789322048E-1,5.758140564E0,5.798515976E0
1.062733965E0,3.918232620E-1,-1.274589598E-1,-3.373870552E-1,5.325422801E-1
1.082050317E0,-3.688941598E-1,-2.813399956E-2,-6.295866013E0,6.306726827E0
1.101366797E0,-1.058270454E0,-5.420066416E-2,-9.642938614E0,9.700986505E0
1.120708621E0,-1.233518958E0,-6.985032558E-2,-9.704097748E0,9.782431251E0
1.140032525E0,-7.668273449E-1,-2.351601608E-2,-6.419002533E0,6.464686435E0
1.159374477E0,-1.000084996E0,-1.492900122E-2,-6.392759323E0,6.470530476E0
1.178691085E0,2.285415232E-1,-1.906991601E-1,5.503450394E0,5.511493775E0
1.198007693E0,4.368605614E-1,-1.828337759E-1,9.264744759E0,9.276840560E0
1.217349773E0,3.753877580E-1,-1.908487231E-1,9.277876854E0,9.287429037E0
1.236666253E0,4.599032998E-1,-1.693163961E-1,7.410410404E0,7.426598242E0
1.255982733E0,2.726774514E-1,-1.271541566E-1,2.343426228E0,2.362661139E0
1.275324813E0,-2.711267173E-1,-6.071978435E-2,-3.788097620E0,3.798273314E0
1.294641421E0,-8.606796265E-1,-2.950398996E-2,-8.257997513E0,8.302780427E0
1.313983373E0,-1.207094312E0,-8.329597116E-2,-9.723257065E0,9.798252030E0
1.333299981E0,-8.398383856E-1,-4.294909909E-2,-7.875267506E0,7.920038600E0
1.352641933E0,-1.896377206E-1,-4.922327772E-2,-3.252544641E0,3.258440124E0
1.371958541E0,3.114114702E-1,-1.284789890E-1,2.867573500E0,2.887293149E0
1.391275149E0,4.144963920E-1,-1.936017573E-1,7.808879852E0,7.822269073E0
1.410617101E0,3.557311893E-1,-1.759223193E-1,9.600207329E0,9.608406429E0
1.429982697E0,3.812603951E-1,-1.743262112E-1,8.436623573E0,8.447032996E0
1.449326553E0,3.195970356E-1,-1.546110362E-1,4.522686005E0,4.536599556E0
1.468643033E0,1.688826596E-3,-9.540947527E-2,-1.137941599E0,1.141935595E0
1.487984985E0,-6.231283545E-1,-5.419149250E-2,-6.422199249E0,6.452586215E0
1.507301593E0,-1.128341913E0,-8.362041414E-2,-9.176768303E0,9.246254611E0
1.526617305E0,-1.156583428E0,-5.686118454E-2,-8.717552185E0,8.794125000E0
1.545933913E0,-6.707707644E-1,-3.598796204E-2,-5.266393661E0,5.309061193E0
1.565275865E0,-9.618320316E-2,-1.163570508E-1,2.523297369E-1,2.940416093E-1
1.584611081E0,1.743862033E-1,-1.952515543E-1,5.789473057E0,5.795388856E0
1.603935790E0,2.767445743E-1,-1.906200200E-1,8.858392715E0,8.864764241E0
1.623282833E0,4.121028185E-1,-1.623530835E-1,8.920780182E0,8.931769495E0
1.642593838E0,5.173264146E-1,-1.570184380E-1,6.262665272E0,6.285957184E0
1.661912580E0,3.437594473E-1,-1.240934432E-1,1.327169299E0,1.376571135E0
1.681262958E0,-2.474393845E-1,-8.150340617E-2,-4.214102268E0,4.222147200E0
1.700574021E0,-8.668345809E-1,-4.320843145E-2,-7.988712311E0,8.035719852E0
1.719888577E0,-1.214174867E0,-7.039126754E-2,-8.912720680E0,8.995319086E0
1.739220094E0,-9.250823855E-1,-4.060587659E-2,-6.766579151E0,6.829642719E0
1.758536830E0,-1.119425178E0,-3.548629954E-2,-6.746557713E0,6.838889747E0
1.777853566E0,-6.070842147E-1,-7.669769228E-2,-2.209732533E0,2.292891547E0
1.797206164E0,3.691129386E-1,-1.845678538E-1,7.575627804E0,7.586860107E0
1.816523862E0,3.243066669E-1,-1.520030797E-1,8.908669472E0,8.915866279E0
1.835840598E0,2.765529454E-1,-1.493378878E-1,7.523329735E0,7.529892007E0
1.855182678E0,1.570060104E-1,-1.852952391E-1,3.612430573E0,3.620585568E0
1.874509876E0,-1.755843461E-1,-1.260018349E-1,-1.755723000E0,1.768974159E0
1.893824679E0,-6.947141290E-1,-2.852249891E-2,-6.421888828E0,6.459419275E0
1.913117136E0,-1.072293520E0,-3.024581447E-2,-8.559827805E0,8.626782729E0
1.932459216E0,-9.959923029E-1,-8.376146108E-2,-7.765865803E0,7.829922625E0
1.951775952E0,-5.395501852E-1,-1.074254960E-1,-4.323727608E0,4.358586361E0
1.971092560E0,5.995085463E-2,-9.621215612E-2,8.579871058E-1,8.654436768E-1
1.990434768E0,2.771492004E-1,-1.304962039E-1,5.765379906E0,5.773512483E0
2.009751504E0,2.646559477E-1,-1.904794872E-1,8.367347717E0,8.373698886E0
2.029072510E0,2.463450730E-1,-2.194562405E-1,8.202128410E0,8.208761015E0
2.048414846E0,2.184690386E-1,-1.462731063E-1,5.393569469E0,5.399973719E0
2.067731582E0,2.035111934E-1,-7.365404814E-2,5.872777104E-1,6.258888350E-1
2.087048446E0,-3.723430037E-1,-5.494067073E-2,-4.445443153E0,4.461347624E0
2.106390654E0,-9.502999783E-1,-9.659495950E-2,-7.645479679E0,7.704917920E0
2.125720641E0,-1.159927249E0,-8.319284767E-2,-8.172510147E0,8.254833395E0
2.145037633E0,-8.299108148E-1,-1.268958114E-2,-5.901892662E0,5.959970636E0
2.164354753E0,-3.781033754E-1,-6.978797913E-2,-1.484391809E0,1.533379133E0
2.183710827E0,-4.977944121E-2,-1.847953200E-1,3.679046631E0,3.684021093E0
2.203031243E0,1.662538350E-1,-2.040627450E-1,7.395448685E0,7.400131295E0
2.222378722E0,2.996987700E-1,-1.392899156E-1,8.292279243E0,8.298862337E0
2.241691627E0,3.732889891E-1,-1.203375906E-1,6.657018185E0,6.668561833E0
2.261014155E0,2.501819134E-1,-1.903915107E-1,2.774735928E0,2.792489818E0
2.280319549E0,-1.500527412E-1,-1.469879150E-1,-2.212051153E0,2.222001705E0
2.299662838E0,-6.936246157E-1,-4.369142652E-2,-6.332980156E0,6.371001625E0
2.318982742E0,-1.064754963E0,-1.639491692E-2,-8.011916161E0,8.082374186E0
2.338320583E0,-1.137090564E0,-1.502400544E-2,-8.006716728E0,8.087070757E0
2.357637617E0,-4.949450791E-1,-1.197661683E-1,-3.513589144E0,3.550299035E0
2.376862661E0,1.928641647E-2,-1.236573085E-1,1.354089856E0,1.359861182E0
2.396179653E0,2.040948868E-1,-1.326220781E-1,5.793535709E0,5.798646338E0
2.415521989E0,2.153384835E-1,-1.514615119E-1,7.925032616E0,7.929404342E0
2.434844361E0,1.938550919E-1,-1.795125902E-1,7.482700825E0,7.487363768E0
2.454186825E0,1.288993955E-1,-1.751275808E-1,4.606806278E0,4.611935473E0
2.473544138E0,-9.385593235E-2,-1.113822535E-1,3.204738721E-2,1.491374448E-1
2.492861386E0,-5.799281597E-1,-6.639285386E-2,-4.556656361E0,4.593891800E0
2.512203722E0,-9.722245932E-1,-5.607464164E-2,-7.285965443E0,7.350758971E0
2.531516794E0,-1.021514654E0,-8.282109350E-2,-7.437176704E0,7.507459547E0
2.550833914E0,-6.816294193E-1,-8.174286783E-2,-5.119616985E0,5.165440798E0
2.570176506E0,-1.830339134E-1,-8.837027848E-2,-8.883261085E-1,9.112815122E-1
2.589493498E0,9.083189815E-2,-1.617985964E-1,3.834518671E0,3.839005426E0
2.608810746E0,1.777761281E-1,-1.773769110E-1,7.053031445E0,7.057500937E0
2.628149949E0,2.253652513E-1,-1.664284170E-1,7.778885365E0,7.783928663E0
2.647466941E0,3.024479449E-1,-1.626381576E-1,6.021628380E0,6.031412295E0
2.666784061E0,1.498297453E-1,-1.399445385E-1,2.129796982E0,2.139642169E0
2.686126397E0,-2.384483665E-1,-8.048063517E-2,-2.566842079E0,2.579149669E0
2.705443389E0,-7.452138662E-1,-5.629584938E-2,-6.154106617E0,6.199317800E0
2.724760637E0,-1.065334797E0,-9.697283059E-2,-7.463195324E0,7.539471228E0
2.744073410E0,-9.769105911E-1,-8.213225007E-2,-6.276484013E0,6.352586211E0
2.763415746E0,-5.758995414E-1,-6.181715429E-2,-2.863535166E0,2.921526192E0
2.782732738E0,-1.533810496E-1,-9.452221543E-2,1.761862278E0,1.771050220E0
2.802049602E0,3.916909918E-2,-1.900752187E-1,5.754378796E0,5.757650400E0
2.821391938E0,1.274251491E-1,-2.350524217E-1,7.536871433E0,7.541612415E0
2.840708613E0,2.269712538E-1,-1.378818005E-1,6.843159676E0,6.848310864E0
2.860025605E0,2.321790606E-1,-9.647373110E-2,3.907813549E0,3.915893389E0
2.879367941E0,4.041866660E-1,-9.944099188E-2,3.883817434E0,3.906058529E0
2.898684933E0,-5.475263000E-1,-1.245050356E-1,-4.607870579E0,4.641956250E0
2.918001925E0,-9.924131036E-1,-8.458883315E-2,-6.971155643E0,7.041949307E0
2.937343560E0,-9.920790792E-1,-8.377251774E-2,-6.971194267E0,7.041930719E0
2.956660552E0,-6.329793334E-1,-5.485825241E-2,-4.475040436E0,4.519918049E0
2.975977544E0,-2.168446332E-1,-1.298304647E-1,-3.391619623E-1,4.229756272E-1
2.995319880E0,5.617323145E-2,-1.627135277E-1,4.012813091E0,4.016503458E0
3.014636872E0,1.342147440E-1,-1.501078010E-1,6.844075680E0,6.847037159E0
3.033951754E0,1.488335133E-1,-1.546800137E-1,7.192237377E0,7.195439932E0
3.053294090E0,8.558990806E-2,-1.797956228E-1,5.270490170E0,5.274250537E0
3.072611082E0,-9.960813820E-2,-1.513346881E-1,1.627938151E0,1.637988582E0
3.091928074E0,-4.531069398E-1,-6.387300789E-2,-2.731472254E0,2.769535400E0
3.111270282E0,-8.287734985E-1,-1.711109839E-2,-6.065629482E0,6.122011052E0
3.130588877E0,-1.015435457E0,-8.486024290E-2,-7.025954247E0,7.099460790E0
3.149931213E0,-8.411222696E-1,-1.089631692E-1,-5.545873165E0,5.610353715E0
3.169248205E0,-4.147725701E-1,-9.164733440E-2,-2.208986759E0,2.249457273E0
3.188565197E0,-6.007980928E-2,-1.128156856E-1,2.001933336E0,2.006009483E0
3.207907533E0,1.034679636E-1,-1.639937013E-1,5.642278671E0,5.645609636E0
3.227224525E0,8.473624289E-2,-1.946858317E-1,7.175229073E0,7.178369944E0
3.246545168E0,1.666844338E-1,-1.804385334E-1,6.235267639E0,6.240104510E0
3.265887632E0,1.361854970E-1,-1.264294386E-1,3.234558344E0,3.239891753E0
3.285204752E0,-1.336925775E-1,-1.051445752E-1,-8.374069929E-1,8.545054469E-1
3.304547088E0,-6.020411849E-1,-9.730935842E-2,-4.606695175E0,4.646887468E0
3.323864208E0,-9.708845019E-1,-8.469998091E-2,-6.629148006E0,6.700402532E0
3.343204893E0,-1.024461627E0,-5.590728670E-2,-6.279588699E0,6.362851679E0
3.362547357E0,-7.376350760E-1,-7.861228287E-2,-3.787826777E0,3.859782000E0
3.381864349E0,-3.708928227E-1,-1.263002902E-1,1.628181934E-1,4.242911894E-1
3.401181469E0,-1.017856821E-1,-1.651421338E-1,4.141805649E0,4.146346136E0
3.420498461E0,5.283475295E-2,-1.547374576E-1,6.547002792E0,6.549044263E0
3.439840925E0,1.474250406E-1,-1.408945173E-1,6.711537838E0,6.714635177E0
3.459169672E0,2.457628399E-1,-1.397873014E-1,6.694102764E0,6.700071021E0
3.478486664E0,3.062150776E-1,-1.546979696E-1,4.634569168E0,4.647249779E0
3.497829835E0,-5.202311277E-1,-9.343113750E-2,-2.978209734E0,3.024748423E0
3.517058058E0,-8.713313341E-1,-7.082584500E-2,-5.819163799E0,5.884462755E0
3.536371130E0,-9.881033897E-1,-7.113183290E-2,-6.532439709E0,6.607130738E0
3.555713466E0,-7.973263264E-1,-6.972956657E-2,-4.996386051E0,5.060085479E0
3.575030330E0,-4.056039453E-1,-1.058834642E-1,-1.658832669E0,1.710979747E0
3.594347322E0,-8.428774774E-2,-1.399975121E-1,2.373330593E0,2.378949733E0
3.613689658E0,6.741600484E-2,-1.658776104E-1,5.546106815E0,5.548996405E0
3.633006650E0,6.665170938E-2,-1.555425078E-1,6.707849979E0,6.709984148E0
3.652323642E0,4.156392440E-2,-1.415688694E-1,5.643675327E0,5.645603644E0
3.671665850E0,-1.069131568E-1,-1.403943300E-1,2.676449776E0,2.682261060E0
3.690982842E0,-3.680449128E-1,-1.313366890E-1,-1.178433537E0,1.241536140E0
3.710299578E0,-7.338054180E-1,-8.327316493E-2,-4.612012386E0,4.670766860E0
3.729616826E0,-9.539931417E-1,-5.818367377E-2,-6.271987438E0,6.344392381E0
3.748959162E0,-8.731133938E-1,-5.721770599E-2,-5.723667622E0,5.790161648E0
3.768275898E0,-7.129102945E-1,-9.283044189E-2,-3.169759989E0,3.250267214E0
3.787592890E0,-3.666122556E-1,-1.410552859E-1,6.021384001E-1,7.189379615E-1
3.806935226E0,-1.095919833E-1,-1.531150490E-1,4.236143112E0,4.240325823E0
3.826252218E0,3.051318787E-2,-1.562145203E-1,6.295815945E0,6.297827597E0
3.845572920E0,1.127543300E-1,-1.562043577E-1,6.158284664E0,6.161297213E0
3.864915256E0,7.921835035E-2,-1.551090926E-1,4.023484230E0,4.027252131E0
3.884232248E0,-9.723472595E-2,-1.458790302E-1,5.515617132E-1,5.787534941E-1
3.903549240E0,-4.867845476E-1,-8.431044966E-2,-3.153481245E0,3.191944769E0
3.922891576E0,-8.499223590E-1,-5.881246552E-2,-5.643900871E0,5.707840570E0
3.942205873E0,-1.000735641E0,-8.429187536E-2,-6.035303593E0,6.118289499E0
3.961523121E0,-8.569031954E-1,-9.518706053E-2,-4.340636253E0,4.425434074E0
3.980865201E0,-4.956600368E-1,-1.039670780E-1,-1.078271985E0,1.191284391E0
4.000182193E0,-2.270076275E-1,-1.132553890E-1,2.652629137E0,2.664732742E0
4.019499185E0,-6.936763227E-2,-1.683690250E-1,5.458261967E0,5.461298719E0
4.038844409E0,-8.820638061E-2,-1.696615517E-1,5.461733341E0,5.465079734E0
4.058161273E0,-5.439430475E-3,-1.701925397E-1,5.008625031E0,5.011518710E0
4.077478265E0,-1.167536974E-1,-1.289799064E-1,2.097640038E0,2.104842267E0
4.096820601E0,-4.366916716E-1,-9.225158393E-2,-1.508546591E0,1.573188732E0
4.116137593E0,-7.884533405E-1,-9.846495092E-2,-4.611970901E0,4.679917693E0
4.135454585E0,-9.673219919E-1,-1.000340655E-1,-5.942828178E0,6.021870590E0
4.154771577E0,-8.765892386E-1,-8.442779630E-2,-5.134052277E0,5.209033454E0
4.174113913E0,-5.363154411E-1,-8.163839579E-2,-2.566279888E0,2.622992860E0
4.193430905E0,-2.112182677E-1,-1.176904961E-1,9.688020945E-1,9.985197583E-1
4.212773241E0,-5.043359101E-2,-1.680746675E-1,4.262183666E0,4.265794445E0
4.232130823E0,3.982646391E-3,-1.960712224E-1,6.015747547E0,6.018943291E0
4.251450432E0,-1.750967785E-4,-1.573693156E-1,5.657485008E0,5.659673290E0
4.270767424E0,-1.121282429E-1,-1.434041709E-1,3.407777786E0,3.412636362E0
4.290109632E0,-3.151265979E-1,-1.311590821E-1,1.143048480E-1,3.599626033E-1
4.309426624E0,-6.304551363E-1,-8.247806877E-2,-3.280620098E0,3.341667928E0
4.328768960E0,-8.743276596E-1,-7.314744592E-2,-5.435098171E0,5.505460157E0
4.348088766E0,-9.909534454E-1,-9.827729315E-2,-5.568147659E0,5.656493217E0
4.367405758E0,-8.216054440E-1,-1.085823029E-1,-3.722558022E0,3.813694252E0
4.386748350E0,-4.863704443E-1,-9.098067880E-2,-5.426607728E-1,7.343802880E-1
4.406065214E0,-2.064490765E-1,-1.151644215E-1,2.858072519E0,2.867832385E0
4.425404796E0,-4.986600578E-2,-1.562832147E-1,5.318547249E0,5.321076573E0
4.444718271E0,-1.137578394E-2,-2.119116783E-1,5.886170387E0,5.889994720E0
4.464060607E0,8.939808235E-3,-1.985657960E-1,4.440996170E0,4.445442079E0
4.483377727E0,-7.993111014E-2,-1.057032198E-1,1.530362010E0,1.536089201E0
4.502694847E0,-3.643549979E-1,-7.012915611E-2,-1.863410473E0,1.899992435E0
4.522011711E0,-7.530655861E-1,-8.663851768E-2,-4.575668812E0,4.638033968E0
4.541337857E0,-9.606087804E-1,-1.402117759E-1,-5.557288647E0,5.641443581E0
4.560654977E0,-9.093375802E-1,-9.736405313E-2,-4.563104153E0,4.653847237E0
4.579997569E0,-6.163715720E-1,-5.324243754E-2,-1.988325477E0,2.082351285E0
4.599314689E0,-7.473077178E-1,-5.107703060E-2,-1.970541835E0,2.108106452E0
4.618631937E0,-4.415499270E-1,-8.846148849E-2,1.346813321E0,1.420104889E0
4.637957703E0,-7.071571797E-2,-1.979420930E-1,5.726019382E0,5.729876068E0
4.657316713E0,-2.918733470E-2,-1.588800251E-1,5.119389534E0,5.121937520E0
4.676575321E0,-1.240065619E-1,-1.180338040E-1,2.829000473E0,2.834175944E0
4.695892697E0,-3.657786548E-1,-1.062655598E-1,-3.392226398E-1,5.100572447E-1
4.715235289E0,-7.049288154E-1,-9.786551446E-2,-3.417565584E0,3.490881954E0
4.734552665E0,-8.936995268E-1,-8.739950508E-2,-5.201788902E0,5.278725727E0
4.753870041E0,-8.864389062E-1,-7.281399518E-2,-5.092256546E0,5.169347400E0
4.773187161E0,-6.547914147E-1,-8.375986665E-2,-3.184110165E0,3.251818730E0
4.792530009E0,-3.618321419E-1,-1.346785724E-1,-1.318415403E-1,4.079742743E-1
4.811847129E0,-1.677947789E-1,-1.445254087E-1,3.049513817E0,3.057544309E0
4.831164505E0,-7.110155374E-2,-1.439220011E-1,5.174035072E0,5.176524694E0
4.850512849E0,-5.506424978E-2,-1.457733363E-1,5.423609734E0,5.425847812E0
4.869830225E0,-1.254570037E-1,-1.598042697E-1,3.863897324E0,3.869234988E0
4.889147601E0,-2.867292464E-1,-1.467833966E-1,1.065219402E0,1.112857314E0
4.908490321E0,-5.475549698E-1,-9.636516869E-2,-2.085150242E0,2.157997734E0
4.927807825E0,-7.584152818E-1,-6.112473086E-2,-4.546654701E0,4.609880578E0
4.947131248E0,-9.302883744E-1,-8.727749437E-2,-5.226901054E0,5.309759736E0
4.966448752E0,-8.863022327E-1,-1.250805855E-1,-4.054332256E0,4.151961807E0
4.985791600E0,-6.261007190E-1,-1.354512274E-1,-1.425035477E0,1.562394078E0
5.005109104E0,-3.267647624E-1,-1.053158417E-1,1.686798215E0,1.721381670E0
5.024426608E0,-1.264168620E-1,-1.454776973E-1,4.286504745E0,4.290835340E0
5.043775646E0,-5.264666677E-2,-1.735901237E-1,5.379920483E0,5.382977763E0
5.063093278E0,-4.385078326E-2,-1.742287874E-1,4.624431133E0,4.627919821E0
5.082410782E0,-1.166485399E-1,-1.345860511E-1,2.317375183E0,2.324209118E0
5.101728414E0,-3.178685308E-1,-9.765594453E-2,-7.364988327E-1,8.080888670E-1
5.121071262E0,-6.334996223E-1,-1.017543152E-1,-3.533760071E0,3.591536712E0
5.140390163E0,-8.937121630E-1,-1.022443846E-1,-4.968965054E0,5.049731582E0
5.159707795E0,-9.272109270E-1,-8.672386408E-2,-4.619910717E0,4.712835258E0
5.179050771E0,-1.016376495E0,-8.544120193E-2,-4.610421181E0,4.721896319E0
5.198368403E0,-8.333920836E-1,-6.832293421E-2,-2.607766151E0,2.738549742E0
5.217686035E0,-1.791596562E-1,-1.736791730E-1,3.187547922E0,3.197299547E0
5.237056703E0,-9.866719693E-2,-1.599101573E-1,4.981065750E0,4.984608558E0
5.256377474E0,-7.702866197E-2,-1.343730092E-1,5.009308338E0,5.011702260E0
5.275709753E0,-1.665764898E-1,-1.480470896E-1,3.366980791E0,3.374348132E0
5.295047026E0,-3.473079205E-1,-1.486790776E-1,6.381536722E-1,7.415985229E-1
5.314364786E0,-5.984764695E-1,-1.394964308E-1,-2.318644762E0,2.398696911E0
5.333682546E0,-8.213508129E-1,-8.906334639E-2,-4.405726910E0,4.482519274E0
5.353035343E0,-8.809199929E-1,-6.178995222E-2,-4.845022202E0,4.924842958E0
5.372356315E0,-7.494446039E-1,-1.004250795E-1,-3.541158199E0,3.620987960E0
5.391675469E0,-4.725567997E-1,-1.385231763E-1,-9.848041534E-1,1.101062133E0
5.411017862E0,-2.493754327E-1,-1.488060802E-1,1.947374582E0,1.968908103E0
5.430330147E0,-1.389232427E-1,-1.471635103E-1,4.263412476E0,4.268213057E0
5.449647821E0,-1.075028777E-1,-1.618578881E-1,5.077977180E0,5.081693329E0
5.468974925E0,-1.180947199E-1,-1.624173969E-1,4.139645576E0,4.144513394E0
5.488294912E0,-2.385127842E-1,-1.353378594E-1,1.836798310E0,1.857157160E0
5.507612672E0,-4.787169993E-1,-9.761919081E-2,-1.053840280E0,1.161584610E0
5.526930176E0,-6.979799271E-1,-1.029956415E-1,-3.573612928E0,3.642594329E0
5.546256020E0,-9.108573198E-1,-1.024239808E-1,-4.707268238E0,4.795677845E0
5.565598294E0,-8.865233064E-1,-8.717291057E-2,-4.125297070E0,4.220378964E0
5.584915029E0,-6.569452882E-1,-9.864193946E-2,-2.114355326E0,2.216259413E0
5.604242257E0,-4.391039610E-1,-1.358846277E-1,6.669306755E-1,8.099836088E-1
5.623578091E0,-2.530101836E-1,-1.610034853E-1,3.335808992E0,3.349262293E0
5.642899228E0,-1.349147260E-1,-1.624796093E-1,4.816860199E0,4.821487715E0
5.662239923E0,-6.358018517E-2,-1.501640528E-1,4.586866379E0,4.589764140E0
5.681565925E0,-1.346668899E-1,-1.499140710E-1,2.816222191E0,2.823422892E0
5.700881881E0,-3.010446727E-1,-1.387782097E-1,2.264008522E-1,4.014282406E-1
5.720222138E0,-5.687910318E-1,-1.029924601E-1,-2.491293192E0,2.557473842E0
5.739540154E0,-5.105234981E-1,-1.044684276E-1,-2.497259617E0,2.551049488E0
5.758857136E0,-9.205600023E-1,-8.875805140E-2,-4.470730782E0,4.565385245E0
5.778200240E0,-7.208578587E-1,-1.417031735E-1,-3.032977104E0,3.120683572E0
5.797516969E0,-4.292053282E-1,-1.395833939E-1,-5.457965136E-1,7.082334162E-1
5.816748124E0,-2.401099652E-1,-1.232065484E-1,2.154405832E0,2.171243224E0
5.836091228E0,-1.481011212E-1,-1.486962140E-1,4.208208561E0,4.213438477E0
5.855407547E0,-1.361592114E-1,-1.630471945E-1,4.760251522E0,4.764988801E0
5.874750651E0,-2.028184980E-1,-1.778673530E-1,3.643090487E0,3.653064526E0
5.894068283E0,-3.113729954E-1,-1.512309760E-1,1.382081985E0,1.424771759E0
5.913411387E0,-5.247344971E-1,-9.944247454E-2,-1.315328717E0,1.419621334E0
5.932729019E0,-7.511975765E-1,-8.996938914E-2,-3.540922880E0,3.620846190E0
5.952046523E0,-8.722932935E-1,-1.045774072E-1,-4.446903706E0,4.532856118E0
5.971389755E0,-7.913362980E-1,-1.163091287E-1,-3.692256451E0,3.777896061E0
5.990707259E0,-5.838878155E-1,-1.140950024E-1,-1.644938707E0,1.749218683E0
6.010025019E0,-3.407754302E-1,-1.251897663E-1,9.971434474E-1,1.061176435E0
6.029368123E0,-1.939650476E-1,-1.632768214E-1,3.394270420E0,3.403726406E0
6.048674680E0,-1.357542574E-1,-1.629805863E-1,4.594405651E0,4.599299422E0
6.067992184E0,-1.092493832E-1,-1.514931023E-1,4.158752441E0,4.162944566E0
6.087309688E0,-1.826231480E-1,-1.517119706E-1,2.361865759E0,2.373768649E0
6.106652536E0,-3.628468513E-1,-1.401762962E-1,-1.301697642E-1,4.101845914E-1
6.125970296E0,-6.101428866E-1,-1.172496676E-1,-2.600194454E0,2.673393541E0
6.145283878E0,-7.904982567E-1,-9.153564274E-2,-4.132292271E0,4.208218825E0
6.164626726E0,-8.871361017E-1,-8.934765309E-2,-4.099394321E0,4.195238643E0
6.183944230E0,-7.709363699E-1,-1.003004909E-1,-2.542679548E0,2.658876146E0
6.203261478E0,-5.477677584E-1,-1.389325112E-1,-1.193418056E-1,5.775761650E-1
6.222604582E0,-3.250260651E-1,-1.503392905E-1,2.385550261E0,2.412279812E0
6.241957808E0,-1.798183769E-1,-1.501617134E-1,4.129556656E0,4.136196485E0
6.261270751E0,-1.090970412E-1,-1.513963938E-1,4.410593510E0,4.414539403E0
6.280587999E0,-1.513477415E-1,-1.653748155E-1,3.163329124E0,3.171262543E0
6.299905375E0,-2.736087143E-1,-1.528802961E-1,9.569981694E-1,1.007015198E0
6.319248223E0,-1.770256609E-1,-1.545646638E-1,9.447793961E-1,9.735689124E-1
6.338565599E0,-4.214691818E-1,-1.042177901E-1,-1.564824462E0,1.623937565E0
6.357880993E0,-8.702881336E-1,-7.789842784E-2,-4.158367634E0,4.249175329E0
6.377223713E0,-7.739289403E-1,-1.298174858E-1,-3.252499104E0,3.345828597E0
6.396541089E0,-5.518349409E-1,-1.409936398E-1,-1.204694152E0,1.332549814E0
6.415858593E0,-3.238242865E-1,-1.392498612E-1,1.272976279E0,1.320878988E0
6.435175841E0,-1.991702467E-1,-1.511227787E-1,3.408751488E0,3.417907779E0
6.454518561E0,-1.761051714E-1,-1.645667851E-1,4.360486507E0,4.367142984E0
6.473835937E0,-2.157725543E-1,-1.521973759E-1,3.781440496E0,3.790648238E0
6.493153441E0,-3.072167039E-1,-1.258238554E-1,1.947943330E0,1.976030608E0
6.512516628E0,-4.598070681E-1,-1.271505207E-1,-4.618639648E-1,6.640091240E-1
6.531844199E0,-6.844843030E-1,-1.302299798E-1,-2.675306797E0,2.764551513E0
6.551156341E0,-8.491564393E-1,-1.054532826E-1,-3.924815655E0,4.017009457E0
6.570498933E0,-8.108664751E-1,-7.757915556E-2,-3.691608906E0,3.780409935E0
6.589804502E0,-6.318778396E-1,-7.524411380E-2,-2.139231682E0,2.231869949E0
6.609121750E0,-4.313937724E-1,-1.408125013E-1,1.989880949E-1,4.955048025E-1
6.628464342E0,-3.285410106E-1,-1.652053446E-1,2.535957575E0,2.562481770E0
6.647791062E0,-2.196283191E-1,-1.524299532E-1,3.977295399E0,3.986270209E0
6.667111262E0,-1.504627913E-1,-1.531463265E-1,4.052087784E0,4.057771341E0
6.686452541E0,-1.778526008E-1,-1.531011760E-1,2.764151573E0,2.774095427E0
6.705772427E0,-3.231705725E-1,-1.547570378E-1,6.140927672E-1,7.109844488E-1
6.725125596E0,-5.405172110E-1,-1.312330216E-1,-1.734827638E0,1.821814451E0
6.744435269E0,-7.644613981E-1,-9.238651395E-2,-3.460618019E0,3.545252258E0
6.763748234E0,-8.496329784E-1,-9.102067351E-2,-3.840227842E0,3.934146774E0
6.783065226E0,-7.762233615E-1,-1.161437333E-1,-2.819295645E0,2.926506451E0
6.802382474E0,-6.104857326E-1,-1.278996766E-1,-8.358722925E-1,1.042944700E0
6.821724810E0,-4.267725945E-1,-1.258204877E-1,1.504209518E0,1.568633774E0
6.841041802E0,-2.886909544E-1,-1.388424635E-1,3.387248278E0,3.402362501E0
6.860376013E0,-1.997533292E-1,-1.804733723E-1,4.096577168E0,4.105413075E0
6.879693005E0,-1.713106334E-1,-1.673039794E-1,3.359205484E0,3.367729122E0
6.899035341E0,-9.400515258E-2,-1.675512344E-1,3.347508192E0,3.353016773E0
6.918352077E0,-1.489060372E-1,-1.285896450E-1,1.552514315E0,1.564930990E0
6.937669069E0,-7.230203152E-1,-1.182855517E-1,-2.730021715E0,2.826617840E0
6.957021160E0,-8.517091870E-1,-1.059780419E-1,-3.691591263E0,3.790050915E0
6.976336634E0,-7.852023840E-1,-9.127310663E-2,-3.307194710E0,3.400354454E0
6.995653626E0,-6.079522371E-1,-8.963418752E-2,-1.754237413E0,1.858760101E0
7.015003732E0,-4.121628702E-1,-1.557803303E-1,4.607524872E-1,6.375253699E-1
7.034316645E0,-2.874204814E-1,-1.667548120E-1,2.609073162E0,2.630148373E0
7.053658807E0,-2.181720436E-1,-1.798531860E-1,3.849944353E0,3.860313165E0
7.072975671E0,-2.261763960E-1,-1.404677778E-1,3.726460934E0,3.735960124E0
7.092292846E0,-2.858961523E-1,-1.545221061E-1,2.388838053E0,2.410842370E0
7.111631513E0,-4.216799140E-1,-1.551604122E-1,2.948725522E-1,5.374369967E-1
7.130952126E0,-6.368680000E-1,-1.448544562E-1,-1.878232121E0,1.988552128E0
7.150272839E0,-7.988725901E-1,-9.349865466E-2,-3.375255108E0,3.469767493E0
7.169606581E0,-8.234350681E-1,-7.925003767E-2,-3.526819468E0,3.622537983E0
7.188921315E0,-7.027853727E-1,-1.178869978E-1,-2.428048849E0,2.530459610E0
7.208231770E0,-5.782425404E-1,-1.292437613E-1,-4.786773920E-1,7.617088886E-1
7.227553087E0,-3.917678893E-1,-1.406843513E-1,1.695815563E0,1.746157092E0
7.246887779E0,-2.768909931E-1,-1.672126800E-1,3.344465494E0,3.360071152E0
7.266209949E0,-2.291205227E-1,-1.545764208E-1,3.820064306E0,3.830049789E0
7.285530062E0,-2.232771665E-1,-1.549226344E-1,3.000517607E0,3.012799300E0
7.304847174E0,-2.961860299E-1,-1.422251612E-1,1.234292507E0,1.277275285E0
7.324181321E0,-4.768622220E-1,-1.049047858E-1,-9.380050302E-1,1.057476255E0
7.343492864E0,-6.843294501E-1,-1.209912375E-1,-2.761470556E0,2.847571827E0
7.362815761E0,-8.335266709E-1,-1.333523095E-1,-3.512136698E0,3.612153614E0
7.382132432E0,-8.068127036E-1,-1.045174748E-1,-2.931003332E0,3.041817084E0
7.401445095E0,-6.423381567E-1,-9.005863965E-2,-1.332794666E0,1.482245084E0
7.420791005E0,-4.908311963E-1,-1.148873791E-1,7.463209033E-1,9.006160469E-1
7.440103904E0,-3.362721503E-1,-1.803799272E-1,2.698482275E0,2.725329790E0
7.459433999E0,-2.430567741E-1,-2.076838762E-1,3.683889866E0,3.697736298E0
7.478771783E0,-2.417532653E-1,-1.418638229E-1,3.368237972E0,3.379881214E0
7.498089652E0,-3.233137429E-1,-1.290303171E-1,1.975606322E0,2.006041111E0
7.517392449E0,-4.797822237E-1,-1.425123364E-1,1.929909550E-2,5.008724421E-1
7.536719702E0,-6.555159092E-1,-1.320872158E-1,-1.988196611E0,2.097635313E0
7.556068854E0,-7.809054852E-1,-8.096129447E-2,-3.265276909E0,3.358333128E0
7.575375689E0,-7.796449065E-1,-9.363790601E-2,-3.238187551E0,3.332037343E0
7.594718350E0,-6.929076314E-1,-1.318163127E-1,-2.015848875E0,2.135683313E0
7.614035086E0,-5.014971495E-1,-1.577449292E-1,-1.176134944E-1,5.387167973E-1
7.633357784E0,-3.289555311E-1,-1.427184045E-1,1.865451336E0,1.899602319E0
7.652707270E0,-2.442882657E-1,-1.410674453E-1,3.284718990E0,3.296809917E0
7.672015444E0,-2.385550737E-1,-1.552669108E-1,3.546987295E0,3.558389412E0
7.691339114E0,-3.178910613E-1,-1.703553051E-1,2.596011400E0,2.620944648E0
7.710649661E0,-4.257812500E-1,-1.569437236E-1,8.459321260E-1,9.599594612E-1
7.729988642E0,-5.704270601E-1,-9.088038653E-2,-1.149525166E0,1.286489169E0
7.749301747E0,-7.237911820E-1,-9.445200861E-2,-2.757119417E0,2.852104896E0
7.768630726E0,-8.187965155E-1,-1.493502557E-1,-3.292832851E0,3.396392413E0
7.787947718E0,-7.976841927E-1,-1.323884428E-1,-2.545921564E0,2.671243789E0
7.807295315E0,-6.149719357E-1,-9.117314965E-2,-9.614499211E-1,1.144940599E0
7.826609778E0,-4.362140000E-1,-8.958046883E-2,9.798969030E-1,1.076338820E0
7.845922925E0,-3.462733626E-1,-1.820513606E-1,2.711550713E0,2.739626837E0
7.865262200E0,-2.832210660E-1,-2.097620070E-1,3.518155575E0,3.535764828E0
7.884582651E0,-2.402479649E-1,-1.578505337E-1,3.030405760E0,3.044009682E0
7.903893023E0,-2.838516235E-1,-1.040371135E-1,1.567032456E0,1.595928001E0
7.923233286E0,-4.343869388E-1,-1.185005233E-1,-3.050379157E-1,5.438589124E-1
7.942551565E0,-6.485039592E-1,-1.622838229E-1,-2.089003325E0,2.193360051E0
7.961868817E0,-7.752047181E-1,-1.226465032E-1,-3.100959063E0,3.198739068E0
7.981211281E0,-8.002210855E-1,-8.001969755E-2,-2.931713343E0,3.040016457E0
8.000530504E0,-6.776555181E-1,-1.051327959E-1,-1.650260925E0,1.787073313E0
8.019841375E0,-5.403279662E-1,-1.445525885E-1,1.948954910E-1,5.923124296E-1
8.039185351E0,-3.494251072E-1,-1.573598534E-1,2.016315222E0,2.052410072E0
8.058506420E0,-2.501491010E-1,-1.561164856E-1,3.201780081E0,3.215329317E0
8.077825108E0,-2.726019919E-1,-1.567689180E-1,3.257684708E0,3.272827217E0
8.097156552E0,-3.298161626E-1,-1.578969359E-1,2.210216522E0,2.240260525E0
8.116473416E0,-4.537163973E-1,-1.585585475E-1,4.881328642E-1,6.850350906E-1
8.135790408E0,-6.105043292E-1,-1.062352955E-1,-1.369204164E0,1.502904360E0
8.155141484E0,-7.409567833E-1,-9.537625313E-2,-2.715845108E0,2.816722960E0
8.174462109E0,-7.985746264E-1,-1.361797154E-1,-3.018172979E0,3.125001517E0
8.193757823E0,-7.236157656E-1,-1.339482963E-1,-2.180444479E0,2.301282262E0
8.213100287E0,-5.350777507E-1,-9.187407792E-2,-5.988139510E-1,8.082865788E-1
8.232431162E0,-4.059410691E-1,-1.184202656E-1,1.218654513E0,1.289934236E0
8.251748282E0,-3.271747231E-1,-1.977353245E-1,2.733661413E0,2.760262176E0
8.271096346E0,-2.876233459E-1,-2.105513662E-1,3.298759222E0,3.317961946E0
8.290420453E0,-2.863157690E-1,-1.444751173E-1,2.692821026E0,2.711850817E0
8.309738405E0,-3.790751696E-1,-7.770603895E-2,1.205091476E0,1.265694149E0
8.329051490E0,-5.379350185E-1,-1.187921688E-1,-5.439676046E-1,7.742005027E-1
8.348399185E0,-6.822500825E-1,-1.631615311E-1,-2.142734766E0,2.254639470E0
8.367646754E0,-7.836753130E-1,-1.233989224E-1,-2.948692083E0,3.053548639E0
8.386963874E0,-7.765458226E-1,-8.078372478E-2,-2.574001312E0,2.689801513E0
8.406306466E0,-6.649414897E-1,-1.195544526E-1,-1.265259862E0,1.434337119E0
8.425623586E0,-5.429430008E-1,-1.590798646E-1,4.832679331E-1,7.440708304E-1
8.444940834E0,-3.900825977E-1,-1.580902636E-1,2.106335402E0,2.147977139E0
8.464265178E0,-2.920000255E-1,-1.310461164E-1,3.052149296E0,3.068884557E0
8.483607898E0,-2.625502944E-1,-1.589742154E-1,2.950043201E0,2.965967017E0
8.502925274E0,-3.310020268E-1,-1.865312457E-1,1.871447682E0,1.909626318E0
8.522242394E0,-4.414124489E-1,-1.607825905E-1,2.050168216E-1,5.125698865E-1
8.541585114E0,-5.729042888E-1,-8.186347038E-2,-1.484277010E0,1.593109913E0
8.560946774E0,-7.102864385E-1,-6.956829131E-2,-2.620863438E0,2.716297430E0
8.580254455E0,-7.766765356E-1,-1.360553205E-1,-2.754199982E0,2.864848169E0
8.599588294E0,-7.228158116E-1,-1.614830643E-1,-1.830181718E0,1.974361820E0
8.618944264E0,-5.957801342E-1,-1.336730272E-1,-2.601383328E-1,6.636975205E-1
8.638261640E0,-6.610206962E-1,-1.332166344E-1,-2.508882284E-1,7.194719839E-1
8.657613139E0,-5.004245639E-1,-1.315152645E-1,1.425544262E0,1.516541279E0
8.676887505E0,-2.988902926E-1,-1.719641984E-1,3.064698696E0,3.084037158E0
8.696205137E0,-3.011302054E-1,-1.601465195E-1,2.334695101E0,2.359476112E0
8.715522769E0,-4.218084514E-1,-1.341350228E-1,8.609873652E-1,9.680980411E-1
8.734865745E0,-5.905193686E-1,-1.482241899E-1,-7.774754167E-1,9.874976247E-1
8.754183377E0,-7.179073691E-1,-1.365517974E-1,-2.165857315E0,2.285820486E0
8.773526353E0,-7.445779443E-1,-9.768126905E-2,-2.742638826E0,2.843590279E0
8.792843985E0,-6.993773580E-1,-9.660658240E-2,-2.248137236E0,2.356391850E0
8.812161617E0,-5.821447372E-1,-1.349061131E-1,-9.011210203E-1,1.081254479E0
8.831504593E0,-4.658491910E-1,-1.608392000E-1,7.505423427E-1,8.978855858E-1
8.850822225E0,-3.592556715E-1,-1.603411734E-1,2.183350563E0,2.218511575E0
8.870141641E0,-2.918910086E-1,-1.462889314E-1,2.927412033E0,2.945563108E0
8.889509223E0,-3.262516558E-1,-1.465020180E-1,2.665467978E0,2.689353551E0
8.907830712E0,-4.014258683E-1,-1.610212475E-1,1.494396687E0,1.555728777E0
8.927148344E0,-4.584031403E-1,-1.492024660E-1,-9.591770917E-2,4.915231651E-1
8.946466104E0,-6.323252916E-1,-1.375144869E-1,-1.619879365E0,1.744349353E0
8.965808045E0,-7.585120201E-1,-1.111837178E-1,-2.536754847E0,2.650061783E0
8.985125805E0,-7.824288607E-1,-9.657128900E-2,-2.464309454E0,2.587342656E0
9.004443437E0,-7.177663445E-1,-1.221793443E-1,-1.485114932E0,1.653989927E0
9.023786413E0,-5.697415471E-1,-1.478805393E-1,4.350048676E-2,5.902256998E-1
9.043104045E0,-4.446847141E-1,-1.738859862E-1,1.611859798E0,1.681092752E0
9.062420241E0,-3.460069299E-1,-1.602515131E-1,2.668573141E0,2.695678755E0
9.081737873E0,-2.966388762E-1,-1.610469669E-1,2.801317453E0,2.821579385E0
9.101080849E0,-3.185519874E-1,-1.478816718E-1,1.998188257E0,2.028817554E0
9.120398481E0,-4.567287862E-1,-1.621313840E-1,5.783917904E-1,7.546024338E-1
9.139716113E0,-5.630226135E-1,-1.370847374E-1,-9.749646187E-1,1.134170488E0
9.159033745E0,-6.765843630E-1,-1.117666140E-1,-2.181074381E0,2.286338477E0
9.178376457E0,-6.704249978E-1,-1.117179245E-1,-2.181785345E0,2.285199743E0
9.197693961E0,-7.947630286E-1,-9.641122818E-2,-2.544569016E0,2.667540978E0
9.217011593E0,-5.861815214E-1,-1.491468847E-1,-5.838177800E-1,8.406525855E-1
9.236329097E0,-4.352184832E-1,-1.211746559E-1,9.582492709E-1,1.059405536E0
9.255646729E0,-3.427472413E-1,-1.473360360E-1,2.253102541E0,2.283780777E0
9.274989906E0,-3.422915637E-1,-1.740615666E-1,2.776952982E0,2.803378106E0
9.294307538E0,-3.931526542E-1,-1.747467965E-1,2.377157927E0,2.415778396E0
9.313625042E0,-4.245489240E-1,-1.348844916E-1,1.192181945E0,1.272687473E0
9.332942546E0,-5.235344768E-1,-1.089888364E-1,-3.497546315E-1,6.389798253E-1
9.352260178E0,-6.781709790E-1,-1.246905401E-1,-1.724969149E0,1.857681935E0
9.371608010E0,-7.745084763E-1,-1.391613185E-1,-2.425939083E0,2.550374421E0
9.390925642E0,-7.360836267E-1,-1.382934004E-1,-2.192533493E0,2.316926259E0
9.410243274E0,-6.112951040E-1,-9.643995762E-2,-1.161348224E0,1.315945313E0
9.429561034E0,-4.945432544E-1,-1.092325673E-1,2.839082479E-1,5.806106074E-1
9.448878666E0,-4.129966795E-1,-1.618545651E-1,1.743304729E0,1.798853673E0
9.468229645E0,-3.560692370E-1,-1.742556989E-1,2.638638735E0,2.668251248E0
9.487547533E0,-3.275752068E-1,-1.480358392E-1,2.583978653E0,2.608862933E0
9.506865165E0,-3.359554708E-1,-1.356886178E-1,1.667915583E0,1.706815711E0
9.526208269E0,-4.522074461E-1,-1.634901017E-1,2.763557136E-1,5.546107357E-1
9.545526157E0,-6.119093299E-1,-1.519663483E-1,-1.152690053E0,1.313857358E0
9.564848463E0,-6.993293166E-1,-9.919336438E-2,-2.166375875E0,2.278614766E0
9.584191695E0,-7.585977316E-1,-9.834191203E-2,-2.327672005E0,2.450142570E0
9.603509583E0,-7.148242593E-1,-1.374564916E-1,-1.596162677E0,1.754309921E0
9.622827471E0,-6.217794418E-1,-1.638032943E-1,-2.875012159E-1,7.043423476E-1
9.642170703E0,-4.812470973E-1,-1.492209285E-1,1.157668829E0,1.262561987E0
9.661488591E0,-3.921419680E-1,-1.480869055E-1,2.283780813E0,2.321930201E0
9.680812818E0,-3.331561983E-1,-1.621865630E-1,2.650837898E0,2.676609627E0
9.700156178E0,-3.337020576E-1,-1.634255648E-1,2.068554401E0,2.101661792E0
9.719474194E0,-4.045996368E-1,-1.369752139E-1,8.412218690E-1,9.434602844E-1
9.738792210E0,-5.431077480E-1,-1.382940114E-1,-5.756675005E-1,8.034203947E-1
9.758135570E0,-5.011203289E-1,-1.392779648E-1,-5.808416605E-1,7.796774783E-1
9.777453586E0,-6.778165102E-1,-1.132903695E-1,-1.770708442E0,1.899388932E0
9.796797074E0,-7.039805055E-1,-9.871803224E-2,-1.931069255E0,2.057756611E0
9.816114962E0,-5.828718543E-1,-1.380176842E-1,-8.447542191E-1,1.035566594E0
9.835432978E0,-4.881183803E-1,-1.506781578E-1,5.592173338E-1,7.574216044E-1
9.854776338E0,-4.083325565E-1,-1.632335484E-1,1.840012074E0,1.891831150E0
9.874096639E0,-3.638363481E-1,-1.492113471E-1,2.501559019E0,2.532279297E0
9.893802271E0,-3.784021139E-1,-1.499146670E-1,2.322542667E0,2.357937024E0
9.913120415E0,-4.426982999E-1,-1.504946053E-1,1.385546207E0,1.462316212E0
9.932463903E0,-5.277668238E-1,-1.374522746E-1,4.947268590E-2,5.476116276E-1
9.951781919E0,-6.146019697E-1,-1.260533780E-1,-1.312424064E0,1.454675895E0
9.971094258E0,-7.160499692E-1,-1.279309988E-1,-2.164386511E0,2.283344667E0
9.990412274E0,-7.432346940E-1,-1.406909078E-1,-2.150788546E0,2.279930505E0
1.000975563E1,-6.689265966E-1,-1.119867638E-1,-1.312451482E0,1.477339744E0
1.002907378E1,-5.108723640E-1,-9.797383100E-2,-3.266921267E-2,5.212069851E-1
1.004839179E1,-4.106714725E-1,-1.379996836E-1,1.303142309E0,1.373271586E0
1.006773712E1,-3.863936961E-1,-1.907083839E-1,2.282917023E0,2.323226185E0
1.008705513E1,-3.442023396E-1,-1.779065132E-1,2.457687140E0,2.488041811E0
1.010637315E1,-3.675999343E-1,-1.381792277E-1,1.793154836E0,1.835654509E0
1.012569129E1,-4.415207207E-1,-1.115024686E-1,5.800759792E-1,7.374696529E-1
1.014503465E1,-5.620205402E-1,-1.400780827E-1,-7.537453771E-1,9.505898434E-1
1.016435312E1,-6.816164851E-1,-1.552330703E-1,-1.809494376E0,1.939837167E0
1.018367126E1,-7.246137261E-1,-1.278980672E-1,-2.176990986E0,2.297980139E0
1.020298915E1,-7.039548755E-1,-9.927920252E-2,-1.679209948E0,1.823500720E0
1.022230729E1,-6.385521293E-1,-1.389403939E-1,-5.631702542E-1,8.626783816E-1
1.024162544E1,-5.483387709E-1,-1.651118994E-1,7.721599936E-1,9.613367790E-1
1.026094345E1,-4.248841405E-1,-1.643234640E-1,1.912714481E0,1.966216016E0
1.028026955E1,-3.397888541E-1,-1.376196295E-1,2.418254375E0,2.445884268E0
1.029961316E1,-3.174053729E-1,-1.384349018E-1,2.070219517E0,2.098980524E0
1.031893143E1,-4.164865315E-1,-1.659386307E-1,1.076325059E0,1.165964104E0
1.033824958E1,-3.644694388E-1,-1.661938578E-1,1.069206476E0,1.141779689E0
1.035759319E1,-6.636268497E-1,-1.269620359E-1,-1.408429861E0,1.562112233E0
1.037691524E1,-6.965076923E-1,-8.795978129E-2,-2.081735849E0,2.196926042E0
1.039623338E1,-7.074538469E-1,-1.147095561E-1,-1.944230556E0,2.072120094E0
1.041555165E1,-6.379678249E-1,-1.536839455E-1,-1.037066817E0,1.227244590E0
1.043489527E1,-5.051062107E-1,-1.663402766E-1,2.290502787E-1,5.790210720E-1
1.045421354E1,-4.237091839E-1,-1.387961060E-1,1.468514442E0,1.534707952E0
1.047353568E1,-3.734262586E-1,-1.518897712E-1,2.253706932E0,2.289478676E0
1.049285395E1,-3.747379780E-1,-1.654176563E-1,2.281148911E0,2.317634981E0
1.051219769E1,-4.137953520E-1,-1.524677724E-1,1.523545265E0,1.586084232E0
1.053151609E1,-4.975142777E-1,-1.262291968E-1,2.979966402E-1,5.935118063E-1
1.055083449E1,-6.046083570E-1,-1.410015672E-1,-9.543712139E-1,1.138532881E0
1.057015289E1,-7.147205472E-1,-1.557931304E-1,-1.834388256E0,1.974861320E0
1.058949664E1,-7.149670124E-1,-1.425636262E-1,-2.026674986E0,2.153813760E0
1.060881491E1,-6.378035545E-1,-1.145678386E-1,-1.435473561E0,1.574961431E0
1.062813331E1,-5.620441437E-1,-1.270013899E-1,-2.937003672E-1,6.467479248E-1
1.064745158E1,-4.836991131E-1,-1.670191437E-1,9.730476141E-1,1.099400694E0
1.066679545E1,-4.270505607E-1,-1.669050157E-1,1.953952074E0,2.007027198E0
1.068611575E1,-3.582710922E-1,-1.536505520E-1,2.294363499E0,2.327245267E0
1.070543415E1,-3.566507399E-1,-1.403647810E-1,1.850065351E0,1.889350106E0
1.072475255E1,-4.562479854E-1,-1.547517926E-1,8.019154072E-1,9.355098405E-1
1.074409642E1,-5.259053111E-1,-1.557613164E-1,-4.363914728E-1,7.009104804E-1
1.076341482E1,-6.396230459E-1,-1.295743585E-1,-1.493058324E0,1.629457061E0
1.078273969E1,-7.244963646E-1,-1.029934436E-1,-1.971026540E0,2.102486207E0
1.080205822E1,-7.562550902E-1,-1.293566823E-1,-1.720295429E0,1.883632469E0
1.082137662E1,-6.638844013E-1,-1.685657948E-1,-7.695305347E-1,1.030210740E0
1.084072049E1,-5.405200124E-1,-1.545738876E-1,4.558318853E-1,7.237663146E-1
1.086003902E1,-4.211730063E-1,-1.142248735E-1,1.542396307E0,1.602941169E0
1.087936432E1,-3.892940581E-1,-1.680439860E-1,2.131513834E0,2.173278599E0
1.089892045E1,-3.791144788E-1,-1.676372290E-1,2.129944086E0,2.169905952E0
1.091823897E1,-4.004198611E-1,-1.554107666E-1,1.284179091E0,1.354106536E0
1.093755763E1,-5.122988820E-1,-1.292211115E-1,5.116941407E-2,5.308168697E-1
1.095690163E1,-4.254019558E-1,-1.298045665E-1,3.968223184E-2,4.465318903E-1
1.097622029E1,-7.192898989E-1,-1.568637639E-1,-1.792954445E0,1.938213053E0
1.099553894E1,-7.160719633E-1,-1.167380363E-1,-1.875054002E0,2.010525885E0
1.101485747E1,-6.306837797E-1,-1.032778472E-1,-1.242224932E0,1.396979286E0
1.103417613E1,-5.271252990E-1,-1.423756331E-1,-7.311293483E-2,5.508878316E-1
1.105352013E1,-4.692934453E-1,-1.683127731E-1,1.151990056E0,1.255247632E0
1.107285139E1,-4.111676812E-1,-1.690625995E-1,1.937940836E0,1.988279585E0
1.109217018E1,-3.853729367E-1,-1.421770900E-1,2.130935192E0,2.170163915E0
1.111148883E1,-4.134908915E-1,-1.413735598E-1,1.661771297E0,1.718268037E0
1.113080774E1,-5.098094940E-1,-1.690698713E-1,6.012946367E-1,8.062540429E-1
1.115012653E1,-6.083940864E-1,-1.573960334E-1,-6.370338798E-1,8.948346437E-1
1.116947066E1,-6.732617617E-1,-1.171417311E-1,-1.572302222E0,1.714391397E0
1.118880039E1,-6.893115640E-1,-1.032067910E-1,-1.874994159E0,2.000351261E0
1.120826340E1,-6.948293447E-1,-1.170986816E-1,-1.499781251E0,1.657058756E0
1.122758245E1,-6.443146467E-1,-1.703676134E-1,-5.350733399E-1,8.546753575E-1
1.124690136E1,-5.569672585E-1,-1.692264825E-1,6.897794604E-1,9.025773282E-1
1.126630733E1,-4.405578375E-1,-1.426130384E-1,1.665875554E0,1.729037608E0
1.128563630E1,-3.837503195E-1,-1.433699131E-1,2.089845419E0,2.129618068E0
1.130498094E1,-3.825128078E-1,-1.700166315E-1,1.851923347E0,1.898642090E0
1.132429998E1,-4.394929111E-1,-1.973823011E-1,1.036852241E0,1.143318136E0
1.134361914E1,-5.007813573E-1,-1.177321002E-1,-1.328823566E-1,5.313196175E-1
1.136293831E1,-5.837582350E-1,-7.791489363E-2,-1.217419982E0,1.352388931E0
1.138231249E1,-6.978712082E-1,-1.312814355E-1,-1.764975548E0,1.902471478E0
1.140165700E1,-7.424361110E-1,-1.851617545E-1,-1.652195454E0,1.820781720E0
1.142097617E1,-6.791844964E-1,-1.450865716E-1,-9.345034957E-1,1.164318890E0
1.144029534E1,-5.365917087E-1,-9.009823203E-2,1.264936477E-1,5.586134586E-1
1.145961451E1,-4.734974504E-1,-1.155181155E-1,1.254012942E0,1.345396867E0
1.147897304E1,-4.238955081E-1,-2.107621133E-1,1.980760455E0,2.036546108E0
1.149829246E1,-4.206795394E-1,-2.115882486E-1,1.980282426E0,2.035499778E0
1.151761176E1,-3.768988848E-1,-1.989418417E-1,1.987322092E0,2.032505774E0
1.153696437E1,-4.981652796E-1,-1.166449189E-1,3.817712665E-1,6.383760513E-1
1.155628379E1,-6.021925211E-1,-1.581920683E-1,-7.195531726E-1,9.515341986E-1
1.157563872E1,-6.763018370E-1,-1.600506604E-1,-1.585509419E0,1.731138500E0
1.159495840E1,-7.023081183E-1,-1.192416102E-1,-1.791646004E0,1.928069153E0
1.161427795E1,-6.437124610E-1,-1.179129928E-1,-1.255901694E0,1.416177345E0
1.163359763E1,-5.690001845E-1,-1.582674682E-1,-2.926986516E-1,6.591527153E-1
1.165294265E1,-4.778611660E-1,-1.717160642E-1,7.952266335E-1,9.435163482E-1
1.167227532E1,-4.084829986E-1,-1.708656400E-1,1.690342903E0,1.747373045E0
1.169159526E1,-3.920004368E-1,-1.159315556E-1,2.048158884E0,2.088554352E0
1.171091506E1,-4.330939353E-1,-1.303683817E-1,1.676333547E0,1.736277752E0
1.173023500E1,-5.274593830E-1,-1.714715809E-1,7.809038162E-1,9.578239264E-1
1.174958041E1,-6.044676304E-1,-1.848575473E-1,-2.934326828E-1,6.968903560E-1
1.176890034E1,-6.534988880E-1,-1.449985653E-1,-1.270009279E0,1.435621451E0
1.178822028E1,-6.473669410E-1,-7.869602740E-2,-1.764455199E0,1.881111153E0
1.180756556E1,-6.994974017E-1,-1.182503849E-1,-1.568999410E0,1.721928836E0
1.182688550E1,-6.659284830E-1,-1.711715758E-1,-7.011087537E-1,9.819948764E-1
1.184620556E1,-5.604001284E-1,-1.714749634E-1,4.003487527E-1,7.097401572E-1
1.186554756E1,-4.483394027E-1,-1.447802633E-1,1.336082578E0,1.416716697E0
1.188490271E1,-4.023853838E-1,-1.574934572E-1,1.925093651E0,1.972993601E0
1.190422335E1,-4.016463757E-1,-1.844532043E-1,1.893622398E0,1.944517571E0
1.192355609E1,-4.156578481E-1,-1.589123756E-1,1.189127684E0,1.269665010E0
1.194289910E1,-4.446587563E-1,-8.705122024E-2,9.462583065E-2,4.628751152E-1
1.196221843E1,-5.321424603E-1,-8.441481739E-2,-8.955286741E-1,1.045118685E0
1.198152708E1,-6.357390285E-1,-1.523719132E-1,-1.539558172E0,1.672608944E0
1.200085260E1,-6.531563401E-1,-1.533995718E-1,-1.646450877E0,1.777904701E0
1.202016473E1,-6.049072146E-1,-8.520379663E-2,-1.121472359E0,1.277056254E0
1.203951001E1,-5.239506960E-1,-8.351027220E-2,-1.165336072E-1,5.432111735E-1
1.205882989E1,-4.753055573E-1,-1.506896168E-1,9.832595587E-1,1.102461833E0
1.207811378E1,-5.010502934E-1,-1.509594768E-1,9.869422913E-1,1.117092318E0
1.209745154E1,-3.411027491E-1,-1.518884748E-1,1.902004600E0,1.938309235E0
1.211679682E1,-3.487629592E-1,-8.404710889E-2,1.461365819E0,1.504755653E0
1.213611676E1,-4.423559904E-1,-1.115251258E-1,5.799654126E-1,7.378865467E-1
1.215543669E1,-5.518569350E-1,-1.529822350E-1,-4.658052325E-1,7.381897829E-1
1.217475350E1,-6.235827804E-1,-1.398325115E-1,-1.304593801E0,1.452712498E0
1.219409865E1,-6.393160820E-1,-8.583384752E-2,-1.634457469E0,1.757140780E0
1.221341858E1,-6.210448146E-1,-8.623254299E-2,-1.372985721E0,1.509378184E0
1.223275055E1,-5.474185348E-1,-1.261402220E-1,-5.480826497E-1,7.848394732E-1
1.225206987E1,-4.649204016E-1,-1.521767080E-1,5.248497128E-1,7.174788856E-1
1.227141528E1,-3.853841722E-1,-1.249697059E-1,1.419902921E0,1.476571262E0
1.229072914E1,-3.520372212E-1,-1.252403408E-1,1.888001800E0,1.924621039E0
1.231005840E1,-3.658097088E-1,-1.520537138E-1,1.708976150E0,1.754290898E0
1.232937363E1,-4.319449663E-1,-1.522854120E-1,9.927407503E-1,1.093298449E0
1.234872131E1,-4.266763628E-1,-9.630125016E-2,-5.947180465E-2,4.414335113E-1
1.236804502E1,-4.876256287E-1,-8.172448725E-2,-1.038799286E0,1.150461473E0
1.238735249E1,-5.876660347E-1,-9.504324943E-2,-1.558927894E0,1.668724293E0
1.240667634E1,-5.987929702E-1,-1.226392910E-1,-1.501637459E0,1.621267552E0
1.242599615E1,-5.396509767E-1,-1.087884754E-1,-9.084864855E-1,1.062264470E0
1.244534672E1,-3.865393996E-1,-8.205971122E-2,7.326174527E-2,4.018877791E-1
1.246465599E1,-2.958945334E-1,-1.072967425E-1,1.074940920E0,1.120073278E0
1.248398241E1,-2.587689459E-1,-1.349693984E-1,1.719131708E0,1.743729318E0
1.250330661E1,-2.163410783E-1,-1.218273044E-1,1.771631122E0,1.788944433E0
1.252262074E1,-2.423067242E-1,-9.459964186E-2,1.274207473E0,1.300486957E0
1.254194055E1,-2.878207564E-1,-8.151206374E-2,3.796231151E-1,4.833205084E-1
1.256126023E1,-3.801430166E-1,-1.095656976E-1,-6.362773776E-1,7.492411203E-1
1.258058914E1,-4.627020061E-1,-1.100855917E-1,-1.376043320E0,1.455921427E0
1.259993429E1,-5.226806402E-1,-8.290851861E-2,-1.579769969E0,1.666055830E0
1.261925397E1,-5.424629450E-1,-8.267588168E-2,-1.577670813E0,1.670373174E0
1.263858202E1,-5.388846397E-1,-6.822616607E-2,-1.175549626E0,1.294978142E0
1.265786787E1,-3.060933948E-1,-1.217999682E-1,6.726992130E-1,7.490344650E-1
1.267720700E1,-2.454768568E-1,-1.217206791E-1,1.470464587E0,1.495774352E0
1.269652642E1,-2.158712596E-1,-1.082549542E-1,1.786971450E0,1.803215600E0
1.271584598E1,-2.487271130E-1,-1.219011992E-1,1.511747241E0,1.536914051E0
1.273519087E1,-3.121957183E-1,-1.225941256E-1,7.415599227E-1,8.138836557E-1
1.275451042E1,-3.727315664E-1,-1.102439687E-1,-2.617219985E-1,4.685946625E-1
1.277383010E1,-4.579062462E-1,-8.336749673E-2,-1.086165309E0,1.181686654E0
1.279317089E1,-4.941170812E-1,-8.317713439E-2,-1.457323074E0,1.541058295E0
1.281250870E1,-4.924717844E-1,-9.708683193E-2,-1.360710382E0,1.450340324E0
1.283182813E1,-4.351867735E-1,-1.105214357E-1,-7.012999654E-1,8.327209359E-1
1.285114755E1,-2.895179093E-1,-9.790527076E-2,2.403537482E-1,3.888135622E-1
1.287047891E1,-2.167719901E-1,-8.245576173E-2,1.146692872E0,1.169911788E0
1.288980898E1,-1.623076499E-1,-8.283369988E-2,1.669271469E0,1.679188028E0
1.290913574E1,-1.739542335E-1,-1.098750010E-1,1.641782999E0,1.654625035E0
1.292844909E1,-1.952075511E-1,-1.101480350E-1,1.074432015E0,1.097562177E0
1.294777683E1,-2.761859298E-1,-9.813772142E-2,1.675849706E-1,3.376305711E-1
1.296711938E1,-2.989435196E-1,-4.357327521E-2,-7.690009475E-1,8.262132385E-1
1.298643924E1,-3.912838399E-1,-2.991316095E-2,-1.384864450E0,1.439391324E0
1.300574408E1,-4.181289375E-1,-7.035614550E-2,-1.478933334E0,1.538514089E0
1.302509195E1,-4.154824317E-1,-9.751754254E-2,-9.970412254E-1,1.084539777E0
1.304441074E1,-2.628269196E-1,-6.155188382E-2,-1.637475938E-1,3.157212354E-1
1.306372900E1,-1.792056859E-1,-3.370530158E-2,7.696194649E-1,7.909265743E-1
1.308306474E1,-1.086689010E-1,-6.085950136E-2,1.468638301E0,1.473910197E0
1.310239056E1,-1.187063679E-1,-8.801312745E-2,1.672526956E0,1.679042563E0
1.312171275E1,-1.154460311E-1,-8.810649067E-2,1.327017903E0,1.334940843E0
1.314102612E1,-1.414288431E-1,-6.175673753E-2,5.432127714E-1,5.647088872E-1
1.316033413E1,-2.078327090E-1,-4.908977449E-2,-3.899606168E-1,4.446049072E-1
1.317967338E1,-3.121051788E-1,-7.641836256E-2,-1.170614243E0,1.213913965E0
1.319899909E1,-3.751432300E-1,-6.272167712E-2,-1.470726490E0,1.519112524E0
1.321831847E1,-3.069305122E-1,-2.192490920E-2,-1.237936139E0,1.275606885E0
1.323763614E1,-3.607333302E-1,-2.209859714E-2,-1.232791901E0,1.284676128E0
1.325697999E1,-1.620502621E-1,-8.339020610E-2,3.640175760E-1,4.070909107E-1
1.327629826E1,-1.299651414E-1,-1.095870957E-1,1.215114713E0,1.226949076E0
1.329561793E1,-6.754807383E-2,-6.899914891E-2,1.640971780E0,1.643810210E0
1.331494023E1,-5.823012069E-2,-4.280054197E-2,1.490119457E0,1.491870849E0
1.333429394E1,-1.056950688E-1,-5.644191429E-2,8.992596865E-1,9.072073197E-1
1.335360838E1,-1.709847599E-1,-7.478964329E-2,4.615155980E-2,1.922478747E-1
1.337292009E1,-2.399020195E-1,-6.200903654E-2,-8.454608321E-1,8.810233358E-1
1.339223236E1,-2.674697340E-1,-8.933300152E-3,-1.407452345E0,1.432669524E0
1.341153739E1,-2.808136046E-1,-8.646215312E-3,-1.393858552E0,1.421890537E0
1.343088152E1,-2.531158328E-1,-7.541981339E-2,-8.318794966E-1,8.727996734E-1
1.345020043E1,-1.530889273E-1,-7.072594762E-2,-2.498781867E-2,1.704780643E-1
1.346951934E1,-8.216029406E-2,-4.359287769E-2,8.258175254E-1,8.310386502E-1
1.348886347E1,-7.159120403E-3,-2.967234515E-2,1.430011749E0,1.430337479E0
1.350818238E1,-1.753680035E-2,-5.625178292E-2,1.594552517E0,1.595640790E0
1.352751368E1,-1.629221067E-2,-7.036426663E-2,1.207408428E0,1.209566732E0
1.354683247E1,-5.140415207E-2,-5.082521960E-2,4.238468409E-1,4.299671317E-1
1.356616285E1,-1.355743259E-1,-2.355523221E-2,-4.946087897E-1,5.133937102E-1
1.358550821E1,-2.461961061E-1,-3.735247999E-2,-1.178932428E0,1.204943734E0
1.360481915E1,-2.736268640E-1,-5.077358708E-2,-1.410463333E0,1.437656576E0
1.362413390E1,-2.182225883E-1,-1.037086081E-2,-1.121061683E0,1.142150581E0
1.364347828E1,-1.610605717E-1,1.676718704E-2,-4.477872252E-1,4.761670352E-1
1.366279720E1,-1.056845710E-1,-4.734486341E-2,4.685585499E-1,4.826571032E-1
1.368212301E1,-4.309032857E-2,-8.724228293E-2,1.276777864E0,1.280480263E0
1.370144460E1,3.001429141E-2,-6.115421653E-2,1.604558229E0,1.606003676E0
1.372078845E1,4.835882038E-2,5.629595369E-3,1.356158853E0,1.357032461E0
1.374011219E1,-1.342914440E-2,-7.337380201E-3,7.373675704E-1,7.375263473E-1
1.375942508E1,2.154906280E-2,-6.817513146E-3,7.341586947E-1,7.345065212E-1
1.377876589E1,-7.998213172E-2,-7.066409290E-2,-1.020719707E-1,1.476795268E-1
1.379808100E1,-2.201113701E-1,-4.354856908E-3,-1.385386467E0,1.402769989E0
1.381740292E1,-1.846120209E-1,5.031698197E-2,-1.303237200E0,1.317209397E0
1.383670495E1,-1.598227322E-1,-1.635044254E-2,-7.003796101E-1,7.185695797E-1
1.385604920E1,-8.130189776E-2,-6.973664463E-2,1.206652746E-1,1.613484015E-1
1.387536812E1,6.158418953E-3,-4.293687269E-2,9.164114594E-1,9.174374443E-1
1.389470975E1,3.295331821E-2,-1.551046409E-2,1.451642752E0,1.452099574E0
1.391404131E1,1.663034968E-2,-4.208979011E-2,1.520010471E0,1.520684041E0
1.393335705E1,-2.887527645E-2,-8.341786265E-2,1.053361416E0,1.057053733E0
1.395268143E1,-5.780854076E-2,-5.129076913E-2,2.026957721E-1,2.169288971E-1
1.397202940E1,-1.009765491E-1,1.668024063E-2,-6.065751314E-1,6.151486682E-1
1.399134929E1,-1.641291827E-1,3.038426489E-2,-1.182315826E0,1.194040328E0
1.401066769E1,-2.076684237E-1,-5.080937594E-2,-1.319369674E0,1.336579254E0
1.403000716E1,-1.672489643E-1,-7.774917781E-2,-9.766938090E-1,9.939557069E-1
1.404932686E1,-7.044304162E-2,-6.987660658E-3,-2.516039908E-1,2.613725649E-1
1.406864990E1,1.966368034E-2,3.673475236E-2,5.559585690E-1,5.575177422E-1
1.408799144E1,5.272792652E-2,-1.591465808E-2,1.256307483E0,1.257514215E0
1.410730395E1,6.513381749E-2,-9.747520834E-2,1.515208721E0,1.519737247E0
1.412660976E1,7.356330007E-2,-5.803627148E-2,1.239478946E0,1.243015617E0
1.414595389E1,4.810427874E-2,4.058172554E-2,5.262222886E-1,5.299724475E-1
1.416527268E1,-1.988865621E-2,5.694206059E-2,-2.546723783E-1,2.617173613E-1
1.418458006E1,-9.887502342E-2,-2.444639057E-2,-9.390848279E-1,9.445920867E-1
1.420392393E1,-1.576103717E-1,-3.931218013E-2,-1.307531834E0,1.317583384E0
1.422325299E1,-1.865602583E-1,1.200107974E-3,-1.196364284E0,1.210823550E0
1.424255794E1,-1.344073564E-1,2.981926315E-2,-5.788805485E-1,5.950270711E-1
1.426187646E1,-4.181399196E-2,-2.321863174E-2,2.693127990E-1,2.735267784E-1
1.428121482E1,2.067919075E-2,-6.456836313E-2,9.953901768E-1,9.976965002E-1
1.430053335E1,7.196114212E-2,-2.411279827E-2,1.405575991E0,1.407623422E0
1.431985188E1,9.277874231E-2,3.645624034E-3,1.376389980E0,1.379518236E0
1.433919575E1,7.605315745E-2,-2.366795763E-2,8.950706124E-1,8.986076208E-1
1.435852168E1,9.620503522E-3,-3.564792126E-2,8.674076945E-2,9.427242154E-2
1.437784249E1,3.841301054E-2,-3.588721529E-2,8.444548398E-2,9.947105792E-2
1.439717617E1,-1.523272395E-1,3.180773556E-2,-1.226213694E0,1.236048277E0
1.441649469E1,-1.336948574E-1,4.561365396E-2,-1.240205646E0,1.248224725E0
1.443582199E1,-9.824004769E-2,-8.558809757E-3,-8.427597880E-1,8.485095288E-1
1.445516545E1,-4.744093865E-2,-3.685471416E-2,-1.037287936E-1,1.198689919E-1
1.447448212E1,2.803174779E-2,-3.581501171E-2,6.902000904E-1,6.916969414E-1
1.449379517E1,8.013509214E-2,5.008625332E-3,1.238844752E0,1.241443933E0
1.451313927E1,1.089039668E-1,-8.629163727E-3,1.417014956E0,1.421219872E0
1.453246141E1,9.280878305E-2,-3.554310650E-2,1.115117669E0,1.119537493E0
1.455178435E1,1.906710491E-2,-3.343383595E-2,4.434651732E-1,4.451322677E-1
1.457109876E1,-5.010781437E-2,2.198000439E-2,-3.781234026E-1,3.820618029E-1
1.459043175E1,-9.733390808E-2,2.170681208E-2,-1.008338809E0,1.013258224E0
1.460974882E1,-1.322748661E-1,-4.867833108E-3,-1.241313815E0,1.248351042E0
1.462906792E1,-1.219260171E-1,-3.180404752E-2,-1.022157788E0,1.029895138E0
1.464841817E1,-3.832707182E-2,-4.692554940E-3,-4.471504092E-1,4.488145196E-1
1.466765446E1,9.060141630E-3,2.356926166E-2,3.217233419E-1,3.227127283E-1
1.468696484E1,6.113205478E-2,-2.559666755E-3,1.047395110E0,1.049180726E0
1.470630820E1,9.152220190E-2,-4.360176250E-2,1.416092157E0,1.419716319E0
1.472562634E1,1.031325758E-1,-3.101426922E-2,1.264007092E0,1.268586670E0
1.474494449E1,1.004082412E-1,-4.174950998E-3,7.147556543E-1,7.217859035E-1
1.476428798E1,1.359561551E-2,3.818217665E-2,-3.834712878E-2,5.579625131E-2
1.478359992E1,-4.894661903E-2,2.426046506E-2,-7.364946604E-1,7.385179256E-1
1.480291793E1,-1.256844699E-1,-3.050946817E-2,-1.173689246E0,1.180793742E0
1.482223569E1,-1.427583247E-1,-3.042834252E-2,-1.172457218E0,1.181508253E0
1.484157918E1,-8.092468977E-2,2.413298003E-2,-7.194268703E-1,7.243660869E-1
1.486089707E1,-4.750890192E-3,3.763793409E-2,1.979954913E-2,4.279260667E-2
1.488021496E1,5.250846222E-2,-1.659617387E-2,7.449018359E-1,7.469346134E-1
1.489952731E1,6.976775080E-2,-5.739352852E-2,1.264548421E0,1.267771377E0
1.491887041E1,1.200022474E-1,-3.116183728E-2,1.318202496E0,1.324020173E0
1.493818830E1,1.368909776E-1,-3.180566803E-2,1.316731095E0,1.324209771E0
1.495750606E1,1.601604968E-1,2.214101888E-2,9.311333299E-1,9.450666048E-1
1.497685751E1,-4.720271379E-2,-1.741314493E-2,-4.338999987E-1,4.368071916E-1
1.499619872E1,-1.017583013E-1,-3.153505549E-2,-9.817789793E-1,9.875419869E-1
1.501553614E1,-1.166394427E-1,8.606046438E-3,-1.173355937E0,1.179170462E0
1.503485390E1,-8.366529644E-2,3.557013348E-2,-8.993801475E-1,9.039633653E-1
1.505419688E1,-2.821276709E-2,-5.695350934E-3,-2.834302485E-1,2.848878780E-1
1.507351464E1,3.391874209E-2,-3.308362141E-2,4.422206879E-1,4.447517778E-1
1.509282837E1,9.639025480E-2,-5.690249149E-3,1.045482278E0,1.049931738E0
1.511214600E1,1.303044260E-1,8.007921278E-3,1.333335996E0,1.339712002E0
1.513148898E1,1.170440465E-1,-1.903020218E-2,1.155024409E0,1.161095536E0
1.515080661E1,4.646580294E-2,-3.147389367E-2,5.660283566E-1,5.688038126E-1
1.517012437E1,-2.859626524E-2,-1.683733054E-2,-1.597506255E-1,1.631609770E-1
1.518946177E1,-6.172197685E-2,2.399084717E-2,-7.764105201E-1,7.792294007E-1
1.520877928E1,-9.025309235E-2,3.804147616E-2,-1.091580510E0,1.095965686E0
1.522809665E1,-8.330814540E-2,-2.631131094E-3,-1.022996664E0,1.026386547E0
1.524743950E1,-6.809882820E-2,-3.131878003E-2,-5.559178591E-1,5.609482885E-1
1.526675700E1,-3.330891486E-3,-1.722128503E-2,1.150264293E-1,1.163561212E-1
1.528608108E1,8.444434404E-2,2.474021167E-2,7.989767194E-1,8.038076408E-1
1.530542406E1,1.347402930E-1,-2.098962897E-3,1.236377358E0,1.243699451E0
1.532474156E1,1.224454343E-1,-2.912623249E-2,1.248692513E0,1.255019606E0
1.534405920E1,9.039674699E-2,-2.859895863E-2,8.370311856E-1,8.423839255E-1
1.536337670E1,5.119045451E-2,1.273771282E-2,1.389676183E-1,1.486428973E-1
1.538271968E1,-1.002426539E-2,4.028302431E-2,-5.446650982E-1,5.462447044E-1
1.540204045E1,-8.287013322E-2,2.734490857E-2,-9.821755290E-1,9.860446099E-1
1.542135821E1,-1.178237125E-1,-1.393822767E-2,-1.063333988E0,1.069932648E0
1.544069063E1,-1.003173143E-1,-1.181978034E-3,-7.745225430E-1,7.809930410E-1
1.546003550E1,-3.311984241E-2,1.209356263E-2,-1.855356693E-1,1.888561961E-1
1.547934981E1,5.152334645E-2,-4.099219514E-4,5.531229377E-1,5.555176032E-1
1.549865971E1,3.422996402E-2,-3.289299493E-4,5.546134710E-1,5.556688770E-1
1.551797734E1,8.795838803E-2,-2.836265601E-2,1.100693464E0,1.104566531E0
1.553732623E1,7.991474867E-2,-1.538507082E-2,9.900506139E-1,9.933897953E-1
1.555664062E1,2.398228459E-2,5.082304124E-4,4.418956339E-1,4.425462231E-1
1.557595838E1,-1.303343568E-2,1.007767743E-3,-2.427105308E-1,2.430623126E-1
1.559527847E1,-5.114499107E-2,3.090724349E-4,-8.316850066E-1,8.332561766E-1
1.561462197E1,-7.306502759E-2,1.423265412E-2,-1.050985575E0,1.053618406E0
1.563394383E1,-5.791380256E-2,9.237248451E-4,-9.002897143E-1,9.021510026E-1
1.565326253E1,-3.923181444E-2,-1.353941206E-2,-4.209048450E-1,4.229460243E-1
1.567261040E1,1.203211024E-2,-1.315384638E-2,2.227197737E-1,2.234320768E-1
1.569192447E1,8.175824583E-2,-1.081692334E-2,8.797477484E-1,8.836048423E-1
1.571124673E1,1.118502691E-1,2.887940966E-3,1.222361326E0,1.227471399E0
1.573059248E1,1.175803989E-1,1.522204746E-2,1.099281073E0,1.105656247E0
1.574989025E1,7.950817794E-2,-1.166723855E-2,6.744848490E-1,6.792550966E-1
1.576920801E1,-1.131894183E-3,-1.044613682E-2,7.176037133E-2,7.252553931E-2
1.578853410E1,-5.712140352E-2,-1.051939745E-2,-5.850664377E-1,5.879423858E-1
1.580785199E1,-9.180017561E-2,1.473951619E-3,-1.023379087E0,1.027489271E0
1.582719997E1,-7.795807719E-2,2.962245420E-2,-1.022407293E0,1.025802917E0
1.584652112E1,-7.121103257E-2,1.514032949E-2,-6.112297177E-1,6.155501674E-1
1.586583257E1,-7.077287417E-3,-8.604681934E-4,-8.375548758E-3,1.099900994E-2
1.588519103E1,6.519544125E-2,-2.101807622E-3,6.212247014E-1,6.246398905E-1
1.590451027E1,8.339776844E-2,-1.544249989E-2,1.099896193E0,1.103161499E0
1.592382201E1,1.038490161E-1,-2.949897945E-2,1.194643497E0,1.199511523E0
1.594314319E1,9.370561689E-2,-1.444319822E-2,8.787493110E-1,8.838493651E-1
1.596245348E1,7.954490930E-2,2.770303935E-2,3.033960760E-1,3.148714498E-1
1.598177150E1,-5.424103700E-3,2.746960707E-2,-3.260620236E-1,3.272620410E-1
1.600112211E1,-7.175450772E-2,-1.396873500E-2,-8.185476661E-1,8.218054007E-1
1.602044337E1,-9.899198264E-2,-1.460022666E-2,-1.036472321E0,1.041291242E0
1.603977094E1,-7.396887988E-2,2.630196325E-2,-8.299782872E-1,8.336828808E-1
1.605909084E1,-9.708087891E-2,2.656690590E-2,-8.281984329E-1,8.342920003E-1
1.607843091E1,2.985535376E-2,-1.668277755E-2,3.733217120E-1,3.748849929E-1
1.609775450E1,8.224748075E-2,-3.014064394E-2,9.353705645E-1,9.394632507E-1
1.611707669E1,1.027915850E-1,-1.678350382E-2,1.209554791E0,1.214030720E0
1.613639018E1,9.972660244E-2,1.009576861E-2,1.058803320E0,1.063537395E0
1.615573283E1,5.169278011E-2,-2.183936303E-3,5.792022943E-1,5.815085647E-1
1.617505280E1,-7.667368045E-4,-1.491459552E-2,-5.084020644E-2,5.298829716E-2
1.619438184E1,7.330621779E-2,1.378118098E-1,-2.002168655E0,2.008244313E0
1.621369134E1,-8.741850033E-3,-4.395039752E-3,-8.318312764E-1,8.318888199E-1
1.623302874E1,-7.534518093E-2,-5.074164271E-2,-2.442243695E-1,2.605708220E-1
